MB_X,MB_Y,MF_X,MF_Y,MFonMB,Crits,Crits_incog,Choice,Subj,Round
-4.0551,-3.9909,-4.178,-4.147,0.0097195,0,0,0,1,76
-4.0551,-3.9909,-4.178,-4.147,0.0097195,0,0,1,1,77
-4.0551,-0.99092,-1.178,-4.147,0.0097195,0,0,0,1,79
-3.0551,-0.99092,-4.178,-1.147,0.0097195,0,0,0,1,80
-2.0551,-0.99092,-2.178,-1.147,0.0097195,0,0,1,1,81
-4.0551,-1.9909,-4.178,-3.147,0.0097195,0,0,0,1,82
-2.0551,-1.9909,-2.178,-3.147,0.0097195,0,0,1,1,83
-2.0551,-1.9909,-2.178,-2.147,0.0097195,0,0,1,1,84
-2.0551,-1.9909,-2.178,-2.147,0.0097195,0,0,1,1,85
-4.0551,-1.9909,-2.178,-2.147,0.0097195,0,0,0,1,86
-2.0551,-2.9909,-2.178,-4.147,0.0097195,0,0,0,1,87
-3.0551,-1.9909,-3.178,-4.147,3.0097,1,0,0,1,89
-0.055101,-1.9909,-4.178,-4.147,0.0097195,0,0,1,1,90
-0.055101,1.0091,-0.17798,0.85295,0.0097195,0,0,1,1,91
-0.055101,1.0091,-4.178,0.85295,0.0097195,0,0,1,1,92
-0.055101,0.009081,2.822,-4.147,0.0097195,0,0,1,1,93
-0.055101,0.009081,-0.17798,2.853,4.0097,1,0,0,1,95
-1.0551,0.009081,-1.178,-0.14705,0.0097195,0,0,1,1,96
-1.0551,2.0091,-1.178,2.853,0.0097195,0,0,1,1,97
-1.0551,1.0091,-1.178,1.853,0.0097195,0,0,1,1,98
0.9449,-0.99092,0.82202,-4.147,4.0097,1,0,0,1,99
-1.0551,3.0091,-1.178,-4.147,0.0097195,0,0,1,1,100
2.9449,-0.99092,2.822,-4.147,0.0097195,0,0,0,1,101
-1.0551,3.0091,-1.178,2.853,1.0097,1,0,1,1,102
3.9449,-0.99092,0.82202,-4.147,0.0097195,0,0,0,1,103
-1.0551,1.0091,-4.178,3.853,0.0097195,0,0,1,1,104
-1.0551,1.0091,-1.178,0.85295,0.0097195,0,0,1,1,105
-1.0551,1.0091,-1.178,0.85295,4.0097,1,0,1,1,106
-1.0551,-0.99092,-4.178,3.853,0.0097195,0,0,0,1,107
-1.0551,5.0091,-1.178,4.853,0.0097195,0,0,1,1,108
-1.0551,1.0091,-1.178,0.85295,0.0097195,0,0,1,1,109
0.9449,-0.99092,0.82202,3.853,0.0097195,0,0,0,1,110
0.9449,-0.99092,-1.178,-1.147,0.0097195,0,0,0,1,111
-1.0551,5.0091,-1.178,0.85295,0.0097195,0,0,1,1,112
4.9449,-0.99092,4.822,3.853,0.0097195,0,0,0,1,113
3.9449,-0.99092,4.822,-1.147,0.0097195,0,0,0,1,114
3.9449,-0.99092,3.822,3.853,-4.9903,1,0,0,1,115
3.9449,-0.99092,4.822,-1.147,-1.9903,1,0,0,1,116
-0.055101,-0.99092,1.822,3.853,0.0097195,0,0,1,1,117
-0.055101,2.0091,-0.17798,-1.147,0.0097195,0,0,1,1,118
-0.055101,2.0091,-0.17798,1.853,-2.9903,1,0,0,1,119
1.9449,2.0091,1.822,1.853,0.0097195,0,0,0,1,120
1.9449,3.0091,-3.178,2.853,0.0097195,0,0,1,1,121
-1.0551,2.0091,-1.178,1.853,0.0097195,0,0,1,1,122
-1.0551,-2.9909,1.822,-3.147,0.0097195,0,0,0,1,123
-3.0551,-3.9909,-3.178,-1.147,0.0097195,0,0,0,1,124
-4.0551,-2.9909,-1.178,-3.147,3.0097,1,0,1,1,125
-4.0551,1.0091,-4.178,0.85295,0.0097195,0,0,1,1,126
-4.0551,1.0091,-4.178,2.853,0.0097195,0,0,1,1,127
-4.0551,2.0091,-1.178,0.85295,0.0097195,0,0,1,1,128
0.9449,-3.9909,1.822,-1.147,0.0097195,0,0,0,1,129
-3.0551,-3.9909,-3.178,-1.147,0.0097195,0,0,1,1,130
-0.055101,-2.9909,-0.17798,0.85295,0.0097195,0,0,0,1,131
-0.055101,-2.9909,-4.178,0.85295,-4.9903,1,0,0,1,132
2.9449,-2.9909,2.822,-3.147,0.0097195,0,0,0,1,133
-0.055101,-2.9909,-0.17798,-3.147,0.0097195,0,0,1,1,134
-0.055101,-0.99092,4.822,0.85295,0.0097195,0,0,0,1,135
-1.0551,-0.99092,-0.17798,-1.147,0.0097195,0,0,1,1,136
-1.0551,0.009081,-1.178,0.85295,0.0097195,0,0,1,1,137
-1.0551,1.0091,-0.17798,0.85295,0.0097195,0,0,1,1,138
-1.0551,1.0091,-0.17798,-0.14705,5.0097,1,0,1,1,139
3.9449,-0.99092,3.822,-1.147,0.0097195,0,0,0,1,140
3.9449,-0.99092,3.822,-1.147,0.0097195,0,0,0,1,141
4.9449,-0.99092,4.822,-1.147,0.0097195,0,0,0,1,142
-1.0551,4.0091,-0.17798,3.853,0.0097195,0,0,1,1,143
-1.0551,4.0091,-0.17798,3.853,0.0097195,0,0,1,1,144
-1.0551,4.0091,-1.178,4.853,5.0097,1,0,1,1,145
-1.0551,3.0091,-1.178,2.853,0.0097195,0,0,1,1,146
-1.0551,5.0091,-0.17798,4.853,0.0097195,0,0,1,1,147
-1.0551,5.0091,-0.17798,4.853,0.0097195,0,0,1,1,148
-1.0551,5.0091,-0.17798,4.853,0.0097195,0,0,1,1,149
-1.0551,5.0091,-0.17798,4.853,4.0097,1,0,1,1,150
-1.0551,3.0091,-0.17798,3.853,0.0097195,0,0,1,1,151
-1.0551,3.0091,-0.17798,2.853,0.0097195,0,0,1,1,152
-1.0551,3.0091,-1.178,2.853,0.0097195,0,0,1,1,153
-1.0551,3.0091,-1.178,2.853,0.0097195,0,0,1,1,154
-1.0551,2.0091,-1.178,1.853,0.0097195,0,0,1,1,155
-1.0551,2.0091,-0.17798,2.853,-2.9903,1,0,1,1,156
-1.0551,1.0091,-1.178,-3.147,0.0097195,0,0,1,1,157
-1.0551,2.0091,-0.17798,1.853,0.0097195,0,0,1,1,158
-1.0551,5.0091,-1.178,4.853,0.0097195,0,0,1,1,159
-1.0551,4.0091,-0.17798,0.85295,0.0097195,0,0,1,1,160
0.9449,-0.99092,0.82202,-1.147,0.0097195,0,0,0,1,161
-0.055101,-0.99092,-0.17798,-1.147,0.0097195,0,0,1,1,162
-1.0551,0.009081,-0.17798,-0.14705,-4.9903,1,0,0,1,163
-2.0551,0.009081,-2.178,3.853,0.0097195,0,0,0,1,164
-0.055101,0.009081,-0.17798,-0.14705,0.0097195,0,0,0,1,165
-0.055101,0.009081,2.822,3.853,0.0097195,0,0,0,1,166
-0.055101,0.009081,4.822,3.853,0.0097195,0,0,0,1,167
-0.055101,0.009081,-0.17798,3.853,-2.9903,1,0,0,1,168
-3.0551,0.009081,-3.178,3.853,0.0097195,0,0,0,1,169
-2.0551,0.009081,-2.178,-0.14705,0.0097195,0,0,1,1,170
-2.0551,4.0091,-2.178,3.853,0.0097195,0,0,1,1,171
3.9449,-1.9909,3.822,2.853,-2.9903,1,0,0,1,172
-2.0551,3.0091,2.822,2.853,0.0097195,0,0,0,1,173
2.9449,3.0091,-2.178,2.853,0.0097195,0,0,0,1,174
2.9449,3.0091,2.822,2.853,0.0097195,0,0,0,1,175
2.9449,3.0091,2.822,2.853,0.0097195,0,0,1,1,176
3.9449,3.0091,2.822,2.853,0.0097195,0,0,0,1,177
2.9449,4.0091,2.822,3.853,0.0097195,0,0,1,1,178
3.9449,3.0091,3.822,2.853,-4.9903,1,0,0,1,179
-4.0551,3.0091,4.822,2.853,0.0097195,0,0,1,1,180
-4.0551,-1.9909,-4.178,-2.147,0.0097195,0,0,1,1,181
-1.0551,-3.9909,2.822,4.853,0.0097195,0,0,1,1,182
-1.0551,2.0091,2.822,1.853,0.0097195,0,0,1,1,183
-1.0551,4.0091,2.822,3.853,0.0097195,0,0,1,1,184
3.9449,-0.99092,-4.178,-1.147,-4.9903,1,0,0,1,185
3.9449,-0.99092,4.822,-1.147,0.0097195,0,0,0,1,186
2.9449,-0.99092,2.822,-1.147,0.0097195,0,0,0,1,187
3.9449,-0.99092,3.822,2.853,0.0097195,0,0,0,1,188
-1.0551,5.0091,2.822,3.853,0.0097195,0,0,1,1,189
4.9449,-0.99092,4.822,-1.147,-3.9903,1,0,0,1,190
-1.0551,2.0091,2.822,3.853,0.0097195,0,0,1,1,191
3.9449,-0.99092,1.822,2.853,0.0097195,0,0,0,1,192
-1.0551,3.0091,2.822,3.853,0.0097195,0,0,1,1,193
-1.0551,0.009081,2.822,-0.14705,0.0097195,0,0,0,1,194
-0.055101,5.0091,2.822,4.853,0.0097195,0,0,1,1,195
-0.055101,5.0091,-0.17798,-1.147,0.0097195,0,0,1,1,196
-0.055101,1.0091,2.822,4.853,0.0097195,0,0,1,1,197
-0.055101,1.0091,2.822,0.85295,-1.9903,1,0,1,1,198
-0.055101,2.0091,2.822,1.853,0.0097195,0,0,1,1,199
-0.055101,2.0091,2.822,-2.147,0.0097195,0,0,1,1,200
-0.055101,2.0091,2.822,1.853,0.0097195,0,0,1,1,201
-0.055101,2.0091,2.822,1.853,3.0097,1,0,1,1,202
2.9449,0.009081,2.822,-0.14705,0.0097195,0,0,0,1,203
1.9449,0.009081,1.822,-0.14705,0.0097195,0,0,0,1,204
-0.055101,4.0091,2.822,3.853,0.0097195,0,0,1,1,205
-0.055101,4.0091,-0.17798,2.853,-3.9903,1,0,0,1,206
-0.055101,4.0091,2.822,-4.147,3.0097,1,0,0,1,207
3.9449,2.0091,-4.178,-3.147,0.0097195,0,0,1,1,208
1.9449,4.0091,0.82202,2.853,0.0097195,0,0,0,1,209
3.9449,4.0091,3.822,2.853,0.0097195,0,0,0,1,210
4.9449,4.0091,4.822,2.853,0.0097195,0,0,0,1,211
3.9449,4.0091,-4.178,3.853,0.0097195,0,0,1,1,212
3.9449,3.0091,-4.178,2.853,0.0097195,0,0,1,1,213
2.9449,4.0091,1.822,2.853,-2.9903,1,0,0,1,214
2.9449,4.0091,2.822,2.853,0.0097195,0,0,0,1,215
3.9449,5.0091,-4.178,4.853,0.0097195,0,0,1,1,216
3.9449,4.0091,-4.178,3.853,0.0097195,0,0,1,1,217
3.9449,3.0091,-4.178,2.853,0.0097195,0,0,1,1,218
2.9449,4.0091,2.822,2.853,-2.9903,1,0,0,1,219
-2.0551,4.0091,2.822,2.853,0.0097195,0,0,1,1,220
-2.0551,-1.9909,2.822,-2.147,0.0097195,0,0,1,1,221
-2.0551,-2.9909,2.822,-3.147,0.0097195,0,0,0,1,222
-2.0551,-2.9909,-2.178,-3.147,-4.9903,1,0,0,1,223
-3.0551,-0.99092,-4.178,4.853,0.0097195,0,0,1,1,224
-3.0551,-2.9909,-1.178,-4.147,0.0097195,0,0,0,1,225
-4.0551,-2.9909,-4.178,-4.147,0.0097195,0,0,1,1,226
-4.0551,-3.9909,-4.178,-3.147,0.0097195,0,0,0,1,227
-3.0551,-3.9909,-3.178,-3.147,0.0097195,0,0,0,1,228
1.9449,-3.9909,-3.178,-4.147,0.0097195,0,0,0,1,229
1.9449,-3.9909,1.822,-3.147,3.0097,1,0,0,1,230
1.9449,-3.9909,-3.178,-3.147,0.0097195,0,0,0,1,231
2.9449,-3.9909,2.822,-3.147,0.0097195,0,0,0,1,232
-4.0551,3.0091,-4.178,1.853,0.0097195,0,0,1,1,233
-4.0551,2.0091,-4.178,1.853,0.0097195,0,0,1,1,234
-4.0551,4.0091,-4.178,3.853,0.0097195,0,0,1,1,235
-0.055101,-3.9909,2.822,-3.147,0.0097195,0,0,1,1,236
-0.055101,3.0091,2.822,-4.147,0.0097195,0,0,1,1,237
-0.055101,-0.99092,2.822,2.853,0.0097195,0,0,1,1,238
0.9449,0.009081,-1.178,-0.14705,0.0097195,0,0,0,1,239
-0.055101,-0.99092,2.822,-1.147,0.0097195,0,0,1,1,240
-0.055101,1.0091,-0.17798,0.85295,0.0097195,0,0,1,1,241
1.9449,0.009081,0.82202,-0.14705,0.0097195,0,0,0,1,242
-0.055101,3.0091,2.822,2.853,0.0097195,0,0,1,1,243
-0.055101,5.0091,2.822,4.853,0.0097195,0,0,1,1,244
-0.055101,5.0091,-0.17798,1.853,5.0097,1,0,1,1,245
3.9449,0.009081,4.822,-0.14705,0.0097195,0,0,0,1,246
-0.055101,4.0091,2.822,3.853,2.0097,1,0,1,1,247
-0.055101,3.0091,2.822,2.853,0.0097195,0,0,1,1,248
-0.055101,0.009081,1.822,-0.14705,0.0097195,0,0,0,1,249
-0.055101,-2.9909,-0.17798,-0.14705,0.0097195,0,0,0,1,250
3.9449,-0.99092,3.822,1.853,0.0097195,0,0,0,2,76
-2.0551,-0.99092,1.822,-1.147,0.0097195,0,0,1,2,77
-2.0551,1.0091,-2.178,0.85295,0.0097195,0,0,1,2,78
-0.055101,-1.9909,1.822,1.853,0.0097195,0,0,0,2,79
-1.0551,-1.9909,-1.178,1.853,0.0097195,0,0,1,2,80
-0.055101,-0.99092,-2.178,-1.147,0.0097195,0,0,0,2,81
-1.0551,1.0091,-1.178,-0.14705,0.0097195,0,0,0,2,82
0.9449,0.009081,-0.17798,-0.14705,0.0097195,0,0,1,2,83
0.9449,1.0091,-0.17798,-0.14705,0.0097195,0,0,0,2,84
0.9449,-1.9909,0.82202,-2.147,0.0097195,0,0,1,2,85
0.9449,-1.9909,-0.17798,0.85295,0.0097195,0,0,1,2,86
0.9449,-1.9909,-0.17798,-2.147,0.0097195,0,0,1,2,87
0.9449,-1.9909,0.82202,-2.147,-1.9903,1,0,1,2,88
0.9449,-1.9909,0.82202,-2.147,0.0097195,0,0,0,2,89
4.9449,-1.9909,-0.17798,-2.147,0.0097195,0,0,0,2,90
-2.0551,5.0091,-2.178,4.853,0.0097195,0,0,1,2,91
3.9449,-1.9909,3.822,-2.147,0.0097195,0,0,0,2,92
-2.0551,4.0091,-2.178,3.853,0.0097195,0,0,1,2,93
3.9449,-1.9909,4.822,-2.147,3.0097,1,0,1,2,94
3.9449,-2.9909,4.822,-3.147,0.0097195,0,0,0,2,95
-3.0551,-0.99092,-3.178,-3.147,0.0097195,0,0,0,2,96
-3.0551,-0.99092,-3.178,-3.147,0.0097195,0,0,1,2,97
-3.0551,2.0091,-3.178,1.853,0.0097195,0,0,1,2,98
1.9449,-2.9909,-1.178,-3.147,-3.9903,1,0,0,2,99
-3.0551,2.0091,-3.178,3.853,0.0097195,0,0,1,2,100
3.9449,-2.9909,1.822,-2.147,0.0097195,0,0,0,2,101
-3.0551,4.0091,-3.178,3.853,0.0097195,0,0,1,2,102
4.9449,-2.9909,4.822,-2.147,0.0097195,0,0,0,2,103
-3.0551,4.0091,-3.178,3.853,0.0097195,0,0,0,2,104
3.9449,3.0091,3.822,-2.147,0.0097195,0,0,1,2,105
2.9449,4.0091,2.822,3.853,-4.9903,1,0,0,2,106
3.9449,4.0091,3.822,4.853,0.0097195,0,0,1,2,107
3.9449,4.0091,3.822,3.853,0.0097195,0,0,1,2,108
3.9449,3.0091,3.822,2.853,0.0097195,0,0,0,2,109
-0.055101,3.0091,3.822,3.853,0.0097195,0,0,1,2,110
-0.055101,1.0091,3.822,2.853,0.0097195,0,0,1,2,111
-0.055101,2.0091,3.822,0.85295,0.0097195,0,0,1,2,112
2.9449,0.009081,2.822,-0.14705,0.0097195,0,0,1,2,113
-1.0551,3.0091,-1.178,1.853,0.0097195,0,0,0,2,114
-1.0551,3.0091,3.822,1.853,-4.9903,1,0,1,2,115
-1.0551,2.0091,3.822,2.853,0.0097195,0,0,0,2,116
-0.055101,2.0091,4.822,1.853,0.0097195,0,0,1,2,117
-0.055101,1.0091,-0.17798,2.853,0.0097195,0,0,0,2,118
-0.055101,1.0091,4.822,0.85295,-2.9903,1,0,0,2,119
3.9449,1.0091,3.822,0.85295,0.0097195,0,0,1,2,120
0.9449,4.0091,2.822,3.853,0.0097195,0,0,0,2,121
1.9449,4.0091,1.822,3.853,0.0097195,0,0,1,2,122
1.9449,3.0091,1.822,2.853,0.0097195,0,0,1,2,123
3.9449,2.0091,2.822,0.85295,0.0097195,0,0,0,2,124
3.9449,2.0091,3.822,0.85295,2.0097,1,0,0,2,125
1.9449,3.0091,1.822,2.853,0.0097195,0,0,1,2,126
2.9449,2.0091,2.822,0.85295,0.0097195,0,0,1,2,127
2.9449,-2.9909,-2.178,1.853,0.0097195,0,0,0,2,128
3.9449,-2.9909,2.822,-3.147,0.0097195,0,0,0,2,129
2.9449,-2.9909,3.822,1.853,0.0097195,0,0,1,2,130
-3.0551,3.0091,-3.178,2.853,0.0097195,0,0,1,2,131
2.9449,-2.9909,3.822,-3.147,-4.9903,1,0,1,2,132
-1.0551,3.0091,-3.178,4.853,0.0097195,0,0,0,2,133
2.9449,-1.9909,4.822,-1.147,0.0097195,0,0,0,2,134
2.9449,-1.9909,3.822,-1.147,0.0097195,0,0,0,2,135
2.9449,-1.9909,2.822,-1.147,0.0097195,0,0,1,2,136
-2.0551,3.0091,-2.178,2.853,0.0097195,0,0,1,2,137
2.9449,-1.9909,2.822,-2.147,0.0097195,0,0,1,2,138
2.9449,-1.9909,2.822,-2.147,5.0097,1,0,0,2,139
-2.0551,5.0091,-2.178,2.853,0.0097195,0,0,1,2,140
-2.0551,5.0091,-2.178,4.853,0.0097195,0,0,1,2,141
2.9449,-1.9909,4.822,-2.147,0.0097195,0,0,1,2,142
2.9449,5.0091,2.822,4.853,0.0097195,0,0,0,2,143
4.9449,5.0091,4.822,4.853,0.0097195,0,0,1,2,144
4.9449,5.0091,4.822,4.853,-4.9903,1,0,1,2,145
1.9449,5.0091,1.822,4.853,0.0097195,0,0,1,2,146
0.9449,2.0091,0.82202,4.853,0.0097195,0,0,0,2,147
1.9449,2.0091,1.822,4.853,0.0097195,0,0,0,2,148
0.9449,2.0091,4.822,1.853,0.0097195,0,0,0,2,149
0.9449,2.0091,0.82202,4.853,-4.9903,1,0,0,2,150
0.9449,2.0091,0.82202,4.853,0.0097195,0,0,1,2,151
0.9449,2.0091,4.822,1.853,0.0097195,0,0,0,2,152
1.9449,2.0091,1.822,1.853,0.0097195,0,0,0,2,153
1.9449,0.009081,1.822,0.85295,0.0097195,0,0,0,2,154
-0.055101,3.0091,0.82202,1.853,0.0097195,0,0,0,2,155
-0.055101,3.0091,-0.17798,1.853,-4.9903,1,0,0,2,156
-1.0551,3.0091,4.822,1.853,0.0097195,0,0,0,2,157
2.9449,0.009081,2.822,-0.14705,0.0097195,0,0,1,2,158
2.9449,0.009081,2.822,-0.14705,0.0097195,0,0,1,2,159
2.9449,-3.9909,2.822,-4.147,0.0097195,0,0,1,2,160
-3.0551,3.0091,-3.178,1.853,0.0097195,0,0,1,2,161
-3.0551,2.0091,-1.178,2.853,0.0097195,0,0,1,2,162
-3.0551,2.0091,-1.178,1.853,4.0097,1,0,1,2,163
-3.0551,5.0091,-3.178,4.853,0.0097195,0,0,0,2,164
4.9449,-1.9909,3.822,-2.147,0.0097195,0,0,0,2,165
4.9449,-1.9909,4.822,-2.147,0.0097195,0,0,0,2,166
-2.0551,5.0091,-1.178,4.853,0.0097195,0,0,1,2,167
4.9449,-1.9909,4.822,-2.147,-3.9903,1,0,0,2,168
-2.0551,-2.9909,-1.178,-3.147,0.0097195,0,0,1,2,169
-2.0551,-3.9909,-1.178,-4.147,0.0097195,0,0,0,2,170
-4.0551,-2.9909,-4.178,-2.147,0.0097195,0,0,1,2,171
-3.0551,-3.9909,-3.178,-4.147,-3.9903,1,0,1,2,172
-3.0551,-3.9909,-3.178,-4.147,0.0097195,0,0,1,2,173
-4.0551,-2.9909,-4.178,3.853,0.0097195,0,0,1,2,174
-4.0551,-1.9909,-4.178,-2.147,0.0097195,0,0,0,2,175
-4.0551,-1.9909,-4.178,-2.147,0.0097195,0,0,1,2,176
-1.0551,-3.9909,-1.178,3.853,0.0097195,0,0,1,2,177
-1.0551,-1.9909,-1.178,-2.147,0.0097195,0,0,1,2,178
-1.0551,-1.9909,-3.178,-4.147,4.0097,1,0,0,2,179
-0.055101,-1.9909,-1.178,3.853,0.0097195,0,0,1,2,180
-0.055101,-1.9909,-1.178,-2.147,0.0097195,0,0,0,2,181
-2.0551,5.0091,-4.178,4.853,0.0097195,0,0,1,2,182
-2.0551,3.0091,-4.178,2.853,0.0097195,0,0,1,2,183
2.9449,-1.9909,2.822,-2.147,0.0097195,0,0,0,2,184
2.9449,-1.9909,-0.17798,-2.147,4.0097,1,0,1,2,185
-2.0551,3.0091,-4.178,-4.147,0.0097195,0,0,0,2,186
-2.0551,3.0091,-2.178,-4.147,0.0097195,0,0,0,2,187
-3.0551,3.0091,-3.178,-4.147,0.0097195,0,0,0,2,188
-3.0551,3.0091,-3.178,-4.147,0.0097195,0,0,0,2,189
2.9449,-2.9909,-0.17798,-2.147,-3.9903,1,0,0,2,190
-3.0551,-2.9909,-4.178,-2.147,0.0097195,0,0,0,2,191
-3.0551,-2.9909,-3.178,-2.147,0.0097195,0,0,0,2,192
-0.055101,-2.9909,-0.17798,-4.147,0.0097195,0,0,0,2,193
-1.0551,-2.9909,-3.178,-2.147,0.0097195,0,0,1,2,194
4.9449,-0.99092,-4.178,-3.147,0.0097195,0,0,0,2,195
-1.0551,4.0091,-3.178,4.853,0.0097195,0,0,0,2,196
-3.0551,4.0091,-3.178,4.853,0.0097195,0,0,0,2,197
-3.0551,4.0091,-1.178,3.853,-4.9903,1,0,1,2,198
-0.055101,-2.9909,-0.17798,4.853,0.0097195,0,0,0,2,199
-2.0551,-2.9909,-2.178,4.853,0.0097195,0,0,0,2,200
-3.0551,2.0091,-1.178,1.853,0.0097195,0,0,1,2,201
-3.0551,2.0091,4.822,4.853,-2.9903,1,0,0,2,202
1.9449,-1.9909,-3.178,-2.147,0.0097195,0,0,1,2,203
-2.0551,2.0091,-2.178,4.853,0.0097195,0,0,0,2,204
1.9449,-0.99092,-3.178,-1.147,0.0097195,0,0,0,2,205
-1.0551,2.0091,-1.178,4.853,3.0097,1,0,1,2,206
3.9449,-0.99092,2.822,-1.147,0.0097195,0,0,1,2,207
-1.0551,4.0091,-1.178,2.853,0.0097195,0,0,1,2,208
-1.0551,2.0091,-1.178,3.853,0.0097195,0,0,0,2,209
1.9449,-3.9909,1.822,-4.147,0.0097195,0,0,0,2,210
-4.0551,5.0091,-1.178,4.853,0.0097195,0,0,1,2,211
-4.0551,4.0091,-1.178,3.853,0.0097195,0,0,1,2,212
2.9449,-3.9909,3.822,-4.147,0.0097195,0,0,1,2,213
-4.0551,3.0091,-1.178,2.853,4.0097,1,0,1,2,214
-4.0551,2.0091,-4.178,1.853,0.0097195,0,0,0,2,215
-3.0551,2.0091,-1.178,3.853,0.0097195,0,0,1,2,216
2.9449,-2.9909,2.822,-3.147,0.0097195,0,0,0,2,217
-3.0551,-0.99092,-1.178,-1.147,0.0097195,0,0,1,2,218
-3.0551,-0.99092,-3.178,1.853,-3.9903,1,0,1,2,219
-2.0551,-2.9909,-4.178,-3.147,0.0097195,0,0,0,2,220
-3.0551,-2.9909,-1.178,-2.147,0.0097195,0,0,1,2,221
-3.0551,-2.9909,-1.178,-3.147,0.0097195,0,0,0,2,222
-3.0551,-2.9909,-3.178,-3.147,4.0097,1,0,1,2,223
-2.0551,-2.9909,-3.178,-3.147,0.0097195,0,0,0,2,224
-3.0551,-1.9909,-4.178,-2.147,0.0097195,0,0,1,2,225
-3.0551,-3.9909,-3.178,-2.147,0.0097195,0,0,0,2,226
2.9449,-3.9909,2.822,-2.147,0.0097195,0,0,0,2,227
-4.0551,1.0091,-4.178,0.85295,0.0097195,0,0,1,2,228
0.9449,-3.9909,0.82202,-2.147,0.0097195,0,0,0,2,229
0.9449,-3.9909,-4.178,-4.147,-4.9903,1,0,1,2,230
0.9449,-2.9909,-4.178,-2.147,0.0097195,0,0,0,2,231
-3.0551,2.0091,-3.178,4.853,0.0097195,0,0,1,2,232
2.9449,-2.9909,2.822,-2.147,0.0097195,0,0,0,2,233
0.9449,-2.9909,1.822,-2.147,0.0097195,0,0,0,2,234
-3.0551,2.0091,-3.178,0.85295,0.0097195,0,0,1,2,235
4.9449,-2.9909,4.822,-2.147,0.0097195,0,0,0,2,236
3.9449,-2.9909,3.822,-2.147,0.0097195,0,0,0,2,237
3.9449,-2.9909,1.822,-3.147,-4.9903,1,0,0,2,238
4.9449,-2.9909,4.822,-2.147,0.0097195,0,0,0,2,239
-3.0551,5.0091,-3.178,4.853,0.0097195,0,0,1,2,240
-3.0551,5.0091,-3.178,1.853,0.0097195,0,0,1,2,241
2.9449,-2.9909,4.822,-2.147,0.0097195,0,0,0,2,242
3.9449,-2.9909,2.822,-2.147,0.0097195,0,0,0,2,243
-3.0551,4.0091,-3.178,3.853,0.0097195,0,0,1,2,244
3.9449,-2.9909,3.822,-3.147,4.0097,1,0,0,2,245
0.9449,-2.9909,-4.178,-2.147,0.0097195,0,0,0,2,246
1.9449,-2.9909,0.82202,-2.147,0.0097195,0,0,0,2,247
-2.0551,-2.9909,-2.178,-3.147,0.0097195,0,0,0,2,248
-2.0551,-2.9909,1.822,-2.147,0.0097195,0,0,0,2,249
-4.0551,-2.9909,-4.178,-2.147,0.0097195,0,0,0,2,250
2.9449,3.0091,1.822,2.853,0.0097195,0,0,0,3,76
2.9449,4.0091,4.822,2.853,0.0097195,0,0,1,3,77
2.9449,3.0091,3.822,2.853,0.0097195,0,0,0,3,78
2.9449,5.0091,4.822,2.853,0.0097195,0,0,1,3,79
-0.055101,3.0091,4.822,2.853,0.0097195,0,0,1,3,80
-0.055101,5.0091,4.822,4.853,0.0097195,0,0,1,3,81
-0.055101,4.0091,4.822,4.853,0.0097195,0,0,1,3,82
-0.055101,4.0091,4.822,3.853,0.0097195,0,0,1,3,83
-0.055101,-0.99092,4.822,-1.147,0.0097195,0,0,0,3,84
4.9449,-0.99092,4.822,3.853,0.0097195,0,0,0,3,85
-1.0551,3.0091,-1.178,-0.14705,0.0097195,0,0,1,3,86
4.9449,-0.99092,4.822,3.853,0.0097195,0,0,0,3,87
4.9449,-0.99092,2.822,-1.147,-3.9903,1,0,0,3,88
3.9449,-0.99092,3.822,3.853,0.0097195,0,0,0,3,89
0.9449,-0.99092,3.822,-1.147,0.0097195,0,0,0,3,90
1.9449,-0.99092,0.82202,3.853,0.0097195,0,0,0,3,91
-1.0551,4.0091,-1.178,3.853,0.0097195,0,0,1,3,92
-1.0551,3.0091,-1.178,2.853,0.0097195,0,0,1,3,93
2.9449,-0.99092,1.822,3.853,-4.9903,1,0,0,3,94
-1.0551,0.009081,-1.178,4.853,0.0097195,0,0,0,3,95
-3.0551,0.009081,-3.178,4.853,0.0097195,0,0,0,3,96
-0.055101,-2.9909,-0.17798,-3.147,0.0097195,0,0,1,3,97
-0.055101,-1.9909,-0.17798,-2.147,0.0097195,0,0,0,3,98
-0.055101,-1.9909,4.822,3.853,2.0097,1,0,1,3,99
-1.0551,0.009081,-2.178,4.853,0.0097195,0,0,1,3,100
0.9449,-0.99092,0.82202,-1.147,0.0097195,0,0,0,3,101
-0.055101,-0.99092,-2.178,-1.147,0.0097195,0,0,0,3,102
-0.055101,-0.99092,-0.17798,-1.147,0.0097195,0,0,0,3,103
-0.055101,-0.99092,-0.17798,-2.147,0.0097195,0,0,1,3,104
2.9449,0.009081,2.822,-0.14705,0.0097195,0,0,0,3,105
-0.055101,3.0091,-0.17798,-1.147,5.0097,1,0,1,3,106
-0.055101,1.0091,-0.17798,0.85295,0.0097195,0,0,1,3,107
2.9449,0.009081,4.822,-0.14705,0.0097195,0,0,0,3,108
-0.055101,4.0091,-0.17798,2.853,0.0097195,0,0,0,3,109
0.9449,4.0091,0.82202,3.853,0.0097195,0,0,1,3,110
0.9449,3.0091,-0.17798,2.853,0.0097195,0,0,1,3,111
0.9449,4.0091,-0.17798,3.853,0.0097195,0,0,1,3,112
0.9449,2.0091,0.82202,2.853,0.0097195,0,0,1,3,113
0.9449,4.0091,-0.17798,1.853,0.0097195,0,0,1,3,114
3.9449,1.0091,3.822,-0.14705,-4.9903,1,0,0,3,115
3.9449,1.0091,3.822,-0.14705,0.0097195,0,0,0,3,116
0.9449,3.0091,-0.17798,4.853,0.0097195,0,0,1,3,117
0.9449,3.0091,0.82202,2.853,0.0097195,0,0,1,3,118
2.9449,1.0091,2.822,-0.14705,-4.9903,1,0,0,3,119
0.9449,3.0091,0.82202,4.853,0.0097195,0,0,0,3,120
2.9449,3.0091,-0.17798,4.853,0.0097195,0,0,0,3,121
2.9449,0.009081,2.822,-0.14705,0.0097195,0,0,0,3,122
1.9449,0.009081,1.822,-0.14705,0.0097195,0,0,0,3,123
-0.055101,-0.99092,2.822,4.853,0.0097195,0,0,1,3,124
-1.0551,0.009081,-1.178,-0.14705,-4.9903,1,0,0,3,125
-0.055101,-0.99092,2.822,-1.147,0.0097195,0,0,0,3,126
-1.0551,0.009081,-1.178,-0.14705,0.0097195,0,0,1,3,127
-1.0551,-0.99092,-0.17798,-1.147,0.0097195,0,0,1,3,128
-1.0551,3.0091,-1.178,4.853,0.0097195,0,0,1,3,129
3.9449,-0.99092,2.822,-1.147,0.0097195,0,0,0,3,130
2.9449,-0.99092,2.822,-1.147,0.0097195,0,0,0,3,131
-1.0551,3.0091,-1.178,3.853,5.0097,1,0,1,3,132
-1.0551,-0.99092,-0.17798,4.853,0.0097195,0,0,0,3,133
-1.0551,-0.99092,4.822,-1.147,0.0097195,0,0,1,3,134
-1.0551,-1.9909,4.822,-2.147,0.0097195,0,0,0,3,135
-1.0551,-1.9909,-1.178,-2.147,0.0097195,0,0,0,3,136
-2.0551,1.0091,-1.178,-1.147,0.0097195,0,0,1,3,137
-2.0551,2.0091,-1.178,1.853,0.0097195,0,0,1,3,138
1.9449,-1.9909,0.82202,-2.147,-4.9903,1,0,0,3,139
0.9449,-1.9909,0.82202,-2.147,0.0097195,0,0,0,3,140
-2.0551,1.0091,-2.178,4.853,0.0097195,0,0,1,3,141
-2.0551,1.0091,-2.178,0.85295,0.0097195,0,0,1,3,142
-2.0551,-1.9909,0.82202,-2.147,0.0097195,0,0,1,3,143
2.9449,-1.9909,-1.178,-2.147,0.0097195,0,0,0,3,144
-2.0551,3.0091,0.82202,2.853,4.0097,1,0,1,3,145
-0.055101,-1.9909,3.822,-2.147,0.0097195,0,0,1,3,146
3.9449,0.009081,0.82202,-0.14705,0.0097195,0,0,0,3,147
-0.055101,4.0091,3.822,3.853,0.0097195,0,0,1,3,148
-0.055101,1.0091,3.822,0.85295,0.0097195,0,0,1,3,149
-0.055101,1.0091,-0.17798,3.853,5.0097,1,0,1,3,150
-0.055101,5.0091,3.822,4.853,0.0097195,0,0,1,3,151
3.9449,0.009081,3.822,-0.14705,0.0097195,0,0,0,3,152
-0.055101,0.009081,3.822,4.853,0.0097195,0,0,0,3,153
-0.055101,0.009081,-0.17798,-0.14705,0.0097195,0,0,0,3,154
3.9449,0.009081,-0.17798,4.853,0.0097195,0,0,0,3,155
3.9449,0.009081,3.822,4.853,3.0097,1,0,1,3,156
3.9449,-0.99092,3.822,-0.14705,0.0097195,0,0,1,3,157
-3.0551,4.0091,-3.178,-3.147,0.0097195,0,0,0,3,158
-3.0551,4.0091,-3.178,-3.147,0.0097195,0,0,1,3,159
-0.055101,-2.9909,3.822,-1.147,0.0097195,0,0,0,3,160
0.9449,-2.9909,0.82202,-1.147,0.0097195,0,0,0,3,161
-3.0551,5.0091,-3.178,-0.14705,0.0097195,0,0,1,3,162
4.9449,-2.9909,4.822,-1.147,3.0097,1,0,0,3,163
1.9449,-2.9909,1.822,-3.147,0.0097195,0,0,0,3,164
2.9449,-2.9909,2.822,-3.147,0.0097195,0,0,0,3,165
-3.0551,4.0091,-3.178,-3.147,0.0097195,0,0,1,3,166
3.9449,-2.9909,3.822,-1.147,0.0097195,0,0,0,3,167
3.9449,-2.9909,3.822,-1.147,-2.9903,1,0,0,3,168
4.9449,-2.9909,4.822,-1.147,0.0097195,0,0,0,3,169
2.9449,-2.9909,2.822,-3.147,0.0097195,0,0,0,3,170
-3.0551,1.0091,-3.178,2.853,0.0097195,0,0,1,3,171
0.9449,-2.9909,0.82202,-1.147,2.0097,1,0,0,3,172
1.9449,-2.9909,1.822,-1.147,0.0097195,0,0,0,3,173
-3.0551,2.0091,-3.178,-2.147,0.0097195,0,0,1,3,174
3.9449,-2.9909,1.822,-1.147,0.0097195,0,0,0,3,175
2.9449,-2.9909,2.822,-3.147,0.0097195,0,0,0,3,176
1.9449,-2.9909,1.822,-3.147,0.0097195,0,0,0,3,177
4.9449,-2.9909,4.822,-3.147,0.0097195,0,0,0,3,178
4.9449,-2.9909,3.822,-1.147,-3.9903,1,0,0,3,179
1.9449,-2.9909,1.822,-1.147,0.0097195,0,0,0,3,180
-3.0551,-0.99092,-3.178,-1.147,0.0097195,0,0,0,3,181
-1.0551,2.0091,3.822,1.853,0.0097195,0,0,1,3,182
-1.0551,1.0091,3.822,-1.147,0.0097195,0,0,1,3,183
-1.0551,2.0091,-1.178,1.853,0.0097195,0,0,1,3,184
1.9449,-0.99092,0.82202,-1.147,4.0097,1,0,0,3,185
-1.0551,-0.99092,3.822,-4.147,0.0097195,0,0,1,3,186
-1.0551,0.009081,-1.178,-0.14705,0.0097195,0,0,0,3,187
-0.055101,-0.99092,-1.178,-1.147,0.0097195,0,0,1,3,188
-2.0551,0.009081,3.822,-1.147,0.0097195,0,0,1,3,189
-2.0551,0.009081,3.822,-0.14705,-3.9903,1,0,1,3,190
-2.0551,0.009081,3.822,-4.147,0.0097195,0,0,1,3,191
-2.0551,-1.9909,3.822,-0.14705,0.0097195,0,0,0,3,192
1.9449,-1.9909,1.822,-2.147,0.0097195,0,0,0,3,193
-2.0551,5.0091,-2.178,-2.147,0.0097195,0,0,0,3,194
4.9449,-1.9909,-2.178,-0.14705,0.0097195,0,0,0,3,195
3.9449,-1.9909,3.822,-0.14705,0.0097195,0,0,0,3,196
0.9449,-1.9909,4.822,-2.147,0.0097195,0,0,0,3,197
-2.0551,1.0091,-2.178,0.85295,-3.9903,1,0,1,3,198
-2.0551,5.0091,-2.178,4.853,0.0097195,0,0,1,3,199
4.9449,-1.9909,-4.178,-2.147,4.0097,1,0,0,3,200
3.9449,-1.9909,3.822,-2.147,0.0097195,0,0,0,3,201
-2.0551,4.0091,-2.178,-4.147,-3.9903,1,0,1,3,202
2.9449,-1.9909,-4.178,-2.147,0.0097195,0,0,0,3,203
2.9449,-1.9909,2.822,-0.14705,0.0097195,0,0,0,3,204
2.9449,-1.9909,2.822,-0.14705,0.0097195,0,0,0,3,205
-2.0551,3.0091,-2.178,2.853,-3.9903,1,0,1,3,206
2.9449,-1.9909,-4.178,-0.14705,0.0097195,0,0,0,3,207
2.9449,-1.9909,2.822,-0.14705,0.0097195,0,0,0,3,208
-2.0551,-0.99092,-2.178,2.853,0.0097195,0,0,1,3,209
-2.0551,-1.9909,-1.178,-0.14705,0.0097195,0,0,1,3,210
-2.0551,-1.9909,-1.178,-2.147,0.0097195,0,0,1,3,211
-2.0551,-1.9909,-2.178,-2.147,0.0097195,0,0,0,3,212
-3.0551,-1.9909,-1.178,-2.147,0.0097195,0,0,1,3,213
-3.0551,-1.9909,-3.178,-2.147,-2.9903,1,0,1,3,214
-3.0551,-3.9909,-3.178,-4.147,0.0097195,0,0,0,3,215
-4.0551,1.0091,-3.178,0.85295,0.0097195,0,0,1,3,216
-4.0551,1.0091,-3.178,0.85295,0.0097195,0,0,1,3,217
3.9449,-3.9909,-1.178,-4.147,0.0097195,0,0,0,3,218
3.9449,-3.9909,3.822,-4.147,-3.9903,1,0,0,3,219
3.9449,-3.9909,3.822,-3.147,0.0097195,0,0,0,3,220
4.9449,-3.9909,3.822,-4.147,0.0097195,0,0,0,3,221
3.9449,-3.9909,4.822,-4.147,0.0097195,0,0,0,3,222
-4.0551,4.0091,-3.178,3.853,-2.9903,1,0,1,3,223
4.9449,-3.9909,-3.178,-4.147,0.0097195,0,0,0,3,224
4.9449,-3.9909,4.822,-4.147,0.0097195,0,0,0,3,225
3.9449,-3.9909,3.822,-4.147,0.0097195,0,0,0,3,226
0.9449,-3.9909,0.82202,-4.147,0.0097195,0,0,0,3,227
0.9449,-3.9909,4.822,-4.147,0.0097195,0,0,0,3,228
3.9449,-3.9909,0.82202,-4.147,0.0097195,0,0,0,3,229
3.9449,-3.9909,3.822,-4.147,3.0097,1,0,0,3,230
1.9449,-3.9909,-3.178,-4.147,0.0097195,0,0,0,3,231
1.9449,-3.9909,1.822,-3.147,0.0097195,0,0,0,3,232
2.9449,-3.9909,2.822,-4.147,0.0097195,0,0,0,3,233
3.9449,-3.9909,1.822,-4.147,0.0097195,0,0,0,3,234
-4.0551,5.0091,-3.178,4.853,0.0097195,0,0,1,3,235
-4.0551,3.0091,-3.178,2.853,0.0097195,0,0,1,3,236
0.9449,-3.9909,3.822,-4.147,0.0097195,0,0,0,3,237
2.9449,-3.9909,2.822,-4.147,0.0097195,0,0,0,3,238
3.9449,-3.9909,3.822,-4.147,0.0097195,0,0,0,3,239
2.9449,-3.9909,0.82202,-4.147,0.0097195,0,0,0,3,240
-4.0551,2.0091,-3.178,1.853,0.0097195,0,0,1,3,241
1.9449,-3.9909,1.822,-4.147,0.0097195,0,0,0,3,242
-4.0551,1.0091,-3.178,0.85295,0.0097195,0,0,1,3,243
1.9449,-3.9909,1.822,-4.147,0.0097195,0,0,0,3,244
1.9449,-3.9909,2.822,-4.147,-4.9903,1,0,0,3,245
3.9449,-3.9909,4.822,-4.147,0.0097195,0,0,0,3,246
-4.0551,4.0091,-3.178,3.853,0.0097195,0,0,1,3,247
2.9449,-3.9909,3.822,-3.147,0.0097195,0,0,0,3,248
2.9449,-3.9909,2.822,-4.147,3.0097,1,0,0,3,249
2.9449,-3.9909,2.822,-4.147,0.0097195,0,0,0,3,250
-1.0551,1.0091,-2.178,0.85295,0.0097195,0,0,1,4,76
-1.0551,3.0091,-1.178,2.853,0.0097195,0,0,0,4,77
1.9449,3.0091,-2.178,2.853,0.0097195,0,0,0,4,78
1.9449,3.0091,1.822,2.853,0.0097195,0,0,1,4,79
-2.0551,2.0091,2.822,1.853,0.0097195,0,0,1,4,80
-2.0551,5.0091,2.822,4.853,0.0097195,0,0,1,4,81
-2.0551,3.0091,2.822,2.853,0.0097195,0,0,1,4,82
-2.0551,1.0091,2.822,0.85295,0.0097195,0,0,0,4,83
0.9449,2.0091,1.822,1.853,0.0097195,0,0,1,4,84
4.9449,1.0091,4.822,0.85295,0.0097195,0,0,0,4,85
3.9449,1.0091,3.822,0.85295,0.0097195,0,0,0,4,86
3.9449,1.0091,3.822,0.85295,0.0097195,0,0,0,4,87
0.9449,4.0091,1.822,-2.147,3.0097,1,0,1,4,88
0.9449,-1.9909,0.82202,-2.147,0.0097195,0,0,0,4,89
-2.0551,-1.9909,1.822,2.853,0.0097195,0,0,0,4,90
-4.0551,-1.9909,-4.178,2.853,0.0097195,0,0,0,4,91
-3.0551,-1.9909,-2.178,-2.147,0.0097195,0,0,1,4,92
-3.0551,-0.99092,-2.178,-1.147,0.0097195,0,0,0,4,93
-3.0551,-0.99092,-3.178,-1.147,-3.9903,1,0,0,4,94
-4.0551,-0.99092,3.822,-1.147,0.0097195,0,0,1,4,95
-4.0551,-2.9909,-4.178,2.853,0.0097195,0,0,1,4,96
-4.0551,-2.9909,-4.178,-3.147,0.0097195,0,0,1,4,97
-4.0551,-3.9909,-4.178,-4.147,0.0097195,0,0,1,4,98
-4.0551,-3.9909,3.822,-3.147,3.0097,1,0,0,4,99
-0.055101,-3.9909,-4.178,2.853,0.0097195,0,0,0,4,100
0.9449,-3.9909,0.82202,2.853,0.0097195,0,0,0,4,101
-4.0551,2.0091,2.822,-0.14705,0.0097195,0,0,1,4,102
-4.0551,3.0091,2.822,2.853,0.0097195,0,0,1,4,103
-4.0551,3.0091,2.822,-0.14705,0.0097195,0,0,1,4,104
-4.0551,-0.99092,2.822,-1.147,0.0097195,0,0,0,4,105
-1.0551,-3.9909,1.822,-3.147,-1.9903,1,0,0,4,106
-4.0551,2.0091,-2.178,-1.147,0.0097195,0,0,0,4,107
1.9449,-3.9909,1.822,-3.147,0.0097195,0,0,1,4,108
1.9449,-3.9909,-1.178,-4.147,0.0097195,0,0,1,4,109
1.9449,-3.9909,-1.178,2.853,0.0097195,0,0,0,4,110
-4.0551,0.009081,-4.178,-0.14705,0.0097195,0,0,0,4,111
-0.055101,1.0091,1.822,2.853,0.0097195,0,0,1,4,112
1.9449,0.009081,0.82202,-0.14705,0.0097195,0,0,0,4,113
-0.055101,0.009081,-0.17798,1.853,0.0097195,0,0,0,4,114
-0.055101,0.009081,1.822,1.853,3.0097,1,0,0,4,115
1.9449,0.009081,1.822,-0.14705,0.0097195,0,0,0,4,116
-0.055101,1.0091,-0.17798,-3.147,0.0097195,0,0,1,4,117
-0.055101,0.009081,0.82202,-0.14705,0.0097195,0,0,0,4,118
-0.055101,0.009081,-0.17798,-0.14705,-1.9903,1,0,0,4,119
0.9449,0.009081,0.82202,-0.14705,0.0097195,0,0,0,4,120
-0.055101,3.0091,-2.178,2.853,0.0097195,0,0,1,4,121
-0.055101,0.009081,-0.17798,-0.14705,0.0097195,0,0,1,4,122
-0.055101,-2.9909,-0.17798,-3.147,0.0097195,0,0,1,4,123
-4.0551,0.009081,-2.178,-0.14705,0.0097195,0,0,1,4,124
-4.0551,0.009081,-2.178,1.853,5.0097,1,0,0,4,125
-0.055101,-3.9909,4.822,-4.147,1.0097,1,0,0,4,126
-3.0551,-3.9909,-3.178,-4.147,0.0097195,0,0,0,4,127
-4.0551,-2.9909,0.82202,-3.147,0.0097195,0,0,0,4,128
-3.0551,0.009081,-3.178,-4.147,0.0097195,0,0,0,4,129
-0.055101,-2.9909,-0.17798,1.853,4.0097,1,0,1,4,130
-0.055101,0.009081,-0.17798,-0.14705,0.0097195,0,0,0,4,131
-0.055101,0.009081,-4.178,-0.14705,-4.9903,1,0,0,4,132
-1.0551,0.009081,4.822,3.853,0.0097195,0,0,0,4,133
-0.055101,0.009081,-0.17798,3.853,0.0097195,0,0,1,4,134
-0.055101,3.0091,-1.178,-0.14705,0.0097195,0,0,1,4,135
-0.055101,5.0091,-0.17798,2.853,0.0097195,0,0,1,4,136
-0.055101,4.0091,-1.178,4.853,0.0097195,0,0,1,4,137
-0.055101,4.0091,-0.17798,3.853,0.0097195,0,0,1,4,138
-0.055101,4.0091,-0.17798,3.853,5.0097,1,0,1,4,139
1.9449,0.009081,4.822,-1.147,0.0097195,0,0,0,4,140
-0.055101,2.0091,-0.17798,1.853,0.0097195,0,0,1,4,141
-0.055101,0.009081,-0.17798,1.853,0.0097195,0,0,0,4,142
-0.055101,0.009081,-0.17798,1.853,0.0097195,0,0,0,4,143
-0.055101,0.009081,-0.17798,1.853,0.0097195,0,0,0,4,144
-0.055101,0.009081,-0.17798,-1.147,4.0097,1,0,1,4,145
0.9449,0.009081,3.822,1.853,0.0097195,0,0,0,4,146
3.9449,0.009081,0.82202,1.853,0.0097195,0,0,0,4,147
-0.055101,4.0091,-0.17798,3.853,0.0097195,0,0,1,4,148
-0.055101,-0.99092,-0.17798,-1.147,0.0097195,0,0,0,4,149
-1.0551,0.009081,3.822,1.853,5.0097,1,0,1,4,150
-1.0551,-3.9909,3.822,-4.147,0.0097195,0,0,1,4,151
-1.0551,-1.9909,-1.178,-2.147,0.0097195,0,0,0,4,152
2.9449,-1.9909,2.822,-2.147,0.0097195,0,0,0,4,153
0.9449,-1.9909,3.822,4.853,0.0097195,0,0,0,4,154
-2.0551,-0.99092,4.822,0.85295,0.0097195,0,0,0,4,155
-1.0551,-1.9909,0.82202,-2.147,-3.9903,1,0,1,4,156
-1.0551,-2.9909,0.82202,-3.147,0.0097195,0,0,0,4,157
3.9449,-2.9909,3.822,-3.147,0.0097195,0,0,0,4,158
4.9449,-2.9909,-1.178,-4.147,0.0097195,0,0,0,4,159
1.9449,-2.9909,1.822,-4.147,0.0097195,0,0,0,4,160
2.9449,-2.9909,2.822,-4.147,0.0097195,0,0,0,4,161
-3.0551,2.0091,-4.178,4.853,0.0097195,0,0,1,4,162
1.9449,-2.9909,1.822,-4.147,-4.9903,1,0,0,4,163
2.9449,-2.9909,2.822,-3.147,0.0097195,0,0,0,4,164
4.9449,-2.9909,4.822,-3.147,0.0097195,0,0,0,4,165
3.9449,-2.9909,3.822,-4.147,0.0097195,0,0,0,4,166
-3.0551,3.0091,-4.178,4.853,0.0097195,0,0,1,4,167
2.9449,-2.9909,2.822,-3.147,-4.9903,1,0,0,4,168
3.9449,-2.9909,3.822,-4.147,0.0097195,0,0,0,4,169
1.9449,-2.9909,1.822,-3.147,0.0097195,0,0,0,4,170
-3.0551,1.0091,-4.178,4.853,0.0097195,0,0,1,4,171
0.9449,-2.9909,0.82202,-4.147,-4.9903,1,0,0,4,172
0.9449,-2.9909,0.82202,-3.147,0.0097195,0,0,0,4,173
-3.0551,-3.9909,-4.178,4.853,0.0097195,0,0,0,4,174
-3.0551,-3.9909,-3.178,4.853,0.0097195,0,0,1,4,175
0.9449,-2.9909,0.82202,-3.147,0.0097195,0,0,0,4,176
1.9449,-2.9909,-4.178,-3.147,0.0097195,0,0,0,4,177
3.9449,-2.9909,1.822,-3.147,0.0097195,0,0,0,4,178
3.9449,-2.9909,3.822,-3.147,3.0097,1,0,1,4,179
3.9449,-0.99092,3.822,-1.147,0.0097195,0,0,0,4,180
-1.0551,2.0091,-1.178,-3.147,0.0097195,0,0,1,4,181
0.9449,-0.99092,1.822,-1.147,0.0097195,0,0,0,4,182
-2.0551,-0.99092,-2.178,-3.147,0.0097195,0,0,1,4,183
-2.0551,-1.9909,-2.178,-2.147,0.0097195,0,0,0,4,184
-2.0551,-1.9909,-1.178,0.85295,-3.9903,1,0,1,4,185
2.9449,-1.9909,-4.178,-1.147,0.0097195,0,0,0,4,186
3.9449,-1.9909,3.822,-1.147,0.0097195,0,0,0,4,187
3.9449,-1.9909,3.822,-2.147,0.0097195,0,0,0,4,188
1.9449,-1.9909,2.822,-2.147,0.0097195,0,0,0,4,189
1.9449,-1.9909,1.822,-2.147,3.0097,1,0,0,4,190
-0.055101,-1.9909,-0.17798,-1.147,0.0097195,0,0,1,4,191
-0.055101,-1.9909,-3.178,-2.147,0.0097195,0,0,0,4,192
-2.0551,-1.9909,-2.178,-2.147,0.0097195,0,0,1,4,193
-2.0551,-0.99092,-0.17798,-1.147,0.0097195,0,0,0,4,194
-1.0551,-2.9909,-2.178,-2.147,0.0097195,0,0,0,4,195
-1.0551,-2.9909,-1.178,-2.147,0.0097195,0,0,1,4,196
-0.055101,-0.99092,-3.178,-1.147,0.0097195,0,0,1,4,197
-1.0551,0.009081,-1.178,-0.14705,4.0097,1,0,0,4,198
-0.055101,2.0091,-3.178,1.853,0.0097195,0,0,1,4,199
-0.055101,0.009081,-0.17798,-4.147,0.0097195,0,0,0,4,200
2.9449,0.009081,2.822,-4.147,0.0097195,0,0,0,4,201
2.9449,0.009081,-3.178,-0.14705,4.0097,1,0,0,4,202
-0.055101,4.0091,-0.17798,-4.147,0.0097195,0,0,1,4,203
-0.055101,4.0091,-0.17798,3.853,0.0097195,0,0,1,4,204
3.9449,0.009081,3.822,-0.14705,0.0097195,0,0,0,4,205
3.9449,0.009081,3.822,-4.147,-4.9903,1,0,0,4,206
2.9449,0.009081,4.822,-0.14705,0.0097195,0,0,0,4,207
-0.055101,4.0091,-0.17798,2.853,0.0097195,0,0,1,4,208
-1.0551,0.009081,3.822,-0.14705,0.0097195,0,0,1,4,209
-0.055101,-0.99092,-0.17798,-1.147,0.0097195,0,0,0,4,210
2.9449,-0.99092,2.822,-1.147,0.0097195,0,0,0,4,211
4.9449,-0.99092,4.822,-1.147,0.0097195,0,0,0,4,212
3.9449,-0.99092,3.822,-1.147,0.0097195,0,0,0,4,213
-1.0551,4.0091,-1.178,-4.147,4.0097,1,0,1,4,214
-1.0551,4.0091,3.822,3.853,0.0097195,0,0,1,4,215
-1.0551,2.0091,-1.178,3.853,0.0097195,0,0,1,4,216
-1.0551,1.0091,-1.178,0.85295,0.0097195,0,0,1,4,217
-1.0551,-0.99092,1.822,-1.147,0.0097195,0,0,1,4,218
-1.0551,-0.99092,3.822,1.853,-2.9903,1,0,0,4,219
-1.0551,-0.99092,2.822,-1.147,0.0097195,0,0,1,4,220
-1.0551,-0.99092,-1.178,1.853,0.0097195,0,0,0,4,221
-4.0551,-0.99092,-4.178,1.853,0.0097195,0,0,1,4,222
-4.0551,-0.99092,-4.178,-1.147,-2.9903,1,0,1,4,223
-4.0551,0.009081,-4.178,-3.147,0.0097195,0,0,0,4,224
-0.055101,-0.99092,-3.178,2.853,0.0097195,0,0,0,4,225
-1.0551,3.0091,-1.178,2.853,0.0097195,0,0,1,4,226
-1.0551,3.0091,2.822,-0.14705,5.0097,1,0,1,4,227
0.9449,-0.99092,4.822,2.853,0.0097195,0,0,0,4,228
-1.0551,1.0091,2.822,0.85295,0.0097195,0,0,1,4,229
0.9449,-0.99092,0.82202,2.853,-3.9903,1,0,0,4,230
-1.0551,-0.99092,-1.178,2.853,0.0097195,0,0,1,4,231
1.9449,-0.99092,1.822,3.853,0.0097195,0,0,0,4,232
1.9449,-0.99092,1.822,3.853,0.0097195,0,0,0,4,233
2.9449,-0.99092,-1.178,-1.147,0.0097195,0,0,0,4,234
1.9449,-0.99092,2.822,3.853,0.0097195,0,0,0,4,235
-0.055101,-0.99092,-0.17798,3.853,0.0097195,0,0,1,4,236
-0.055101,0.009081,1.822,-0.14705,0.0097195,0,0,1,4,237
-0.055101,-0.99092,1.822,-1.147,0.0097195,0,0,0,4,238
-4.0551,-0.99092,-0.17798,-1.147,0.0097195,0,0,1,4,239
-2.0551,-3.9909,-1.178,-0.14705,0.0097195,0,0,0,4,240
-4.0551,1.0091,-0.17798,-2.147,0.0097195,0,0,1,4,241
2.9449,-3.9909,0.82202,-0.14705,0.0097195,0,0,1,4,248
-2.0551,3.0091,-4.178,0.85295,0.0097195,0,0,0,4,249
2.9449,-2.9909,0.82202,-2.147,0.0097195,0,0,0,4,250
-0.055101,3.0091,-2.178,4.853,0.0097195,0,0,0,5,76
1.9449,3.0091,-0.17798,2.853,0.0097195,0,0,1,5,77
-2.0551,2.0091,-2.178,1.853,0.0097195,0,0,0,5,78
-2.0551,2.0091,-2.178,1.853,0.0097195,0,0,0,5,79
1.9449,-3.9909,1.822,4.853,0.0097195,0,0,0,5,80
1.9449,-3.9909,0.82202,4.853,0.0097195,0,0,0,5,81
-1.0551,-3.9909,-0.17798,-4.147,0.0097195,0,0,0,5,82
-4.0551,-0.99092,-4.178,-1.147,0.0097195,0,0,1,5,83
-1.0551,-3.9909,-1.178,-4.147,0.0097195,0,0,1,5,84
-1.0551,-1.9909,-1.178,4.853,0.0097195,0,0,1,5,85
-1.0551,-3.9909,-1.178,-4.147,0.0097195,0,0,0,5,86
-0.055101,-3.9909,-1.178,-4.147,0.0097195,0,0,0,5,87
-0.055101,-3.9909,-0.17798,-4.147,-4.9903,1,0,0,5,88
-1.0551,-3.9909,4.822,-2.147,0.0097195,0,0,0,5,89
-1.0551,-3.9909,-1.178,-4.147,0.0097195,0,0,1,5,90
-1.0551,1.0091,-1.178,0.85295,0.0097195,0,0,1,5,91
-1.0551,2.0091,-1.178,1.853,0.0097195,0,0,0,5,92
1.9449,5.0091,-2.178,4.853,0.0097195,0,0,1,5,93
4.9449,2.0091,-1.178,1.853,4.0097,1,0,0,5,94
3.9449,2.0091,3.822,-2.147,0.0097195,0,0,1,5,95
3.9449,2.0091,-4.178,1.853,-0.99028,1,0,1,5,96
3.9449,-1.9909,3.822,-1.147,0.0097195,0,0,1,5,97
-4.0551,4.0091,-4.178,-4.147,0.0097195,0,0,1,5,98
3.9449,-3.9909,3.822,-2.147,4.0097,1,0,0,5,99
-4.0551,3.0091,-4.178,-4.147,0.0097195,0,0,1,5,100
-4.0551,4.0091,-4.178,3.853,0.0097195,0,0,0,5,101
3.9449,1.0091,3.822,-2.147,0.0097195,0,0,1,5,102
-1.0551,4.0091,0.82202,3.853,0.0097195,0,0,1,5,103
-1.0551,1.0091,0.82202,0.85295,0.0097195,0,0,1,5,104
-0.055101,-0.99092,2.822,0.85295,0.0097195,0,0,1,5,105
-0.055101,-0.99092,2.822,-1.147,4.0097,1,0,1,5,106
0.9449,0.009081,3.822,-0.14705,0.0097195,0,0,1,5,107
3.9449,1.0091,3.822,0.85295,0.0097195,0,0,0,5,108
3.9449,1.0091,2.822,0.85295,0.0097195,0,0,1,5,109
3.9449,-1.9909,2.822,3.853,0.0097195,0,0,1,5,110
3.9449,-2.9909,2.822,-3.147,0.0097195,0,0,1,5,111
3.9449,-2.9909,3.822,-2.147,0.0097195,0,0,1,5,112
3.9449,0.009081,2.822,-0.14705,0.0097195,0,0,0,5,113
3.9449,0.009081,3.822,-3.147,0.0097195,0,0,1,5,114
3.9449,0.009081,3.822,-0.14705,-3.9903,1,0,1,5,115
2.9449,4.0091,-4.178,3.853,0.0097195,0,0,1,5,116
-1.0551,3.0091,3.822,-4.147,0.0097195,0,0,0,5,117
-1.0551,3.0091,-1.178,2.853,0.0097195,0,0,1,5,118
2.9449,-0.99092,-4.178,-1.147,4.0097,1,0,1,5,119
2.9449,-0.99092,-4.178,-1.147,0.0097195,0,0,1,5,120
0.9449,3.0091,-1.178,-4.147,0.0097195,0,0,1,5,121
0.9449,-1.9909,-1.178,-4.147,0.0097195,0,0,0,5,122
1.9449,-1.9909,0.82202,-4.147,0.0097195,0,0,0,5,123
-0.055101,-1.9909,1.822,-4.147,0.0097195,0,0,0,5,124
-0.055101,-1.9909,-0.17798,-4.147,-4.9903,1,0,1,5,125
-3.0551,0.009081,-2.178,-0.14705,0.0097195,0,0,1,5,126
-1.0551,-2.9909,4.822,-2.147,0.0097195,0,0,1,5,127
0.9449,-0.99092,0.82202,-1.147,0.0097195,0,0,1,5,128
-1.0551,1.0091,-1.178,-3.147,0.0097195,0,0,0,5,129
-1.0551,1.0091,-1.178,-3.147,0.0097195,0,0,1,5,130
-1.0551,4.0091,4.822,3.853,0.0097195,0,0,1,5,131
3.9449,-0.99092,0.82202,-1.147,-4.9903,1,0,0,5,132
-1.0551,2.0091,-1.178,4.853,0.0097195,0,0,1,5,133
-1.0551,1.0091,4.822,1.853,0.0097195,0,0,0,5,134
2.9449,1.0091,2.822,1.853,0.0097195,0,0,0,5,135
4.9449,1.0091,4.822,1.853,0.0097195,0,0,1,5,136
4.9449,-2.9909,4.822,0.85295,0.0097195,0,0,0,5,137
0.9449,-2.9909,0.82202,-3.147,0.0097195,0,0,0,5,138
0.9449,-2.9909,-1.178,0.85295,-2.9903,1,0,0,5,139
-3.0551,-2.9909,-3.178,0.85295,0.0097195,0,0,1,5,140
-3.0551,-2.9909,2.822,-3.147,2.0097,1,0,0,5,141
-3.0551,-2.9909,-3.178,-3.147,0.0097195,0,0,0,5,142
-2.0551,-2.9909,-2.178,-3.147,0.0097195,0,0,0,5,143
-3.0551,1.0091,-3.178,1.853,0.0097195,0,0,0,5,144
0.9449,-2.9909,0.82202,-3.147,-3.9903,1,0,0,5,145
-3.0551,-0.99092,-4.178,-1.147,0.0097195,0,0,1,5,146
-3.0551,-0.99092,-4.178,-1.147,0.0097195,0,0,1,5,147
1.9449,-2.9909,1.822,-3.147,0.0097195,0,0,1,5,148
-3.0551,2.0091,-3.178,1.853,0.0097195,0,0,1,5,149
1.9449,-2.9909,1.822,-3.147,4.0097,1,0,0,5,150
-1.0551,-2.9909,-1.178,-3.147,0.0097195,0,0,0,5,152
-3.0551,-1.9909,-3.178,-4.147,0.0097195,0,0,0,5,153
-4.0551,-1.9909,-4.178,-4.147,0.0097195,0,0,1,5,154
-4.0551,-2.9909,-4.178,-2.147,0.0097195,0,0,1,5,155
-4.0551,-2.9909,-4.178,-3.147,-3.9903,1,0,1,5,156
-4.0551,-1.9909,-4.178,-2.147,0.0097195,0,0,1,5,157
-4.0551,-2.9909,-4.178,-3.147,0.0097195,0,0,0,5,158
-3.0551,-2.9909,-4.178,-4.147,0.0097195,0,0,0,5,160
1.9449,-2.9909,-3.178,-3.147,0.0097195,0,0,0,5,161
4.9449,-2.9909,1.822,-4.147,0.0097195,0,0,1,5,162
4.9449,-2.9909,4.822,-3.147,-3.9903,1,0,0,5,163
-3.0551,2.0091,-4.178,1.853,0.0097195,0,0,1,5,164
2.9449,-2.9909,1.822,-4.147,0.0097195,0,0,1,5,165
2.9449,-0.99092,1.822,-3.147,0.0097195,0,0,0,5,166
3.9449,-0.99092,3.822,-1.147,0.0097195,0,0,1,5,167
3.9449,-0.99092,3.822,-3.147,-3.9903,1,0,1,5,168
3.9449,-2.9909,3.822,-3.147,0.0097195,0,0,1,5,169
3.9449,-1.9909,2.822,-2.147,0.0097195,0,0,0,5,170
3.9449,-1.9909,3.822,-4.147,0.0097195,0,0,0,5,171
3.9449,-1.9909,3.822,-2.147,-2.9903,1,0,1,5,172
3.9449,0.009081,3.822,-0.14705,0.0097195,0,0,0,5,173
3.9449,0.009081,2.822,-4.147,0.0097195,0,0,0,5,174
3.9449,0.009081,3.822,-0.14705,0.0097195,0,0,1,5,175
3.9449,1.0091,3.822,0.85295,0.0097195,0,0,0,5,176
3.9449,1.0091,3.822,-4.147,0.0097195,0,0,0,5,177
2.9449,1.0091,2.822,-4.147,0.0097195,0,0,0,5,178
2.9449,1.0091,3.822,0.85295,2.0097,1,0,1,5,179
2.9449,4.0091,-2.178,3.853,0.0097195,0,0,0,5,180
3.9449,1.0091,-4.178,3.853,0.0097195,0,0,0,5,181
0.9449,1.0091,3.822,3.853,0.0097195,0,0,0,5,182
-0.055101,1.0091,-0.17798,3.853,0.0097195,0,0,1,5,183
-0.055101,0.009081,0.82202,0.85295,0.0097195,0,0,1,5,184
-0.055101,0.009081,0.82202,-0.14705,-3.9903,1,0,1,5,185
-0.055101,3.0091,0.82202,-4.147,0.0097195,0,0,1,5,186
2.9449,0.009081,2.822,-0.14705,0.0097195,0,0,0,5,187
-0.055101,5.0091,0.82202,4.853,0.0097195,0,0,1,5,188
-0.055101,4.0091,0.82202,2.853,0.0097195,0,0,1,5,189
-0.055101,4.0091,0.82202,3.853,-3.9903,1,0,0,5,190
1.9449,4.0091,-0.17798,-4.147,0.0097195,0,0,0,5,191
1.9449,4.0091,1.822,-4.147,0.0097195,0,0,1,5,192
1.9449,0.009081,1.822,-0.14705,0.0097195,0,0,1,5,193
1.9449,-0.99092,1.822,-1.147,0.0097195,0,0,0,5,194
3.9449,-0.99092,3.822,-1.147,0.0097195,0,0,1,5,195
3.9449,2.0091,3.822,3.853,0.0097195,0,0,1,5,196
3.9449,-0.99092,1.822,1.853,0.0097195,0,0,1,5,197
3.9449,-0.99092,3.822,-1.147,5.0097,1,0,0,5,198
0.9449,-0.99092,0.82202,-1.147,0.0097195,0,0,0,5,199
-1.0551,-0.99092,-1.178,-1.147,0.0097195,0,0,1,5,200
0.9449,-0.99092,0.82202,1.853,0.0097195,0,0,1,5,201
-1.0551,1.0091,-1.178,4.853,-4.9903,1,0,0,5,202
4.9449,1.0091,4.822,0.85295,0.0097195,0,0,0,5,203
1.9449,1.0091,4.822,4.853,0.0097195,0,0,1,5,204
1.9449,0.009081,1.822,-0.14705,0.0097195,0,0,0,5,205
-0.055101,2.0091,0.82202,4.853,5.0097,1,0,1,5,206
-0.055101,0.009081,4.822,-0.14705,0.0097195,0,0,1,5,207
-3.0551,0.009081,0.82202,-0.14705,0.0097195,0,0,0,5,208
-0.055101,-2.9909,-0.17798,-3.147,2.0097,1,0,0,5,209
-1.0551,-2.9909,-1.178,-3.147,0.0097195,0,0,0,5,210
-2.0551,-2.9909,-2.178,-3.147,0.0097195,0,0,1,5,211
-2.0551,-3.9909,4.822,1.853,0.0097195,0,0,0,5,212
-4.0551,-2.9909,1.822,-2.147,0.0097195,0,0,1,5,213
-3.0551,-3.9909,-3.178,1.853,-4.9903,1,0,1,5,214
-3.0551,2.0091,4.822,-4.147,0.0097195,0,0,1,5,215
0.9449,-2.9909,1.822,4.853,0.0097195,0,0,1,5,216
0.9449,-2.9909,1.822,-2.147,0.0097195,0,0,1,5,217
-3.0551,1.0091,-3.178,0.85295,0.0097195,0,0,0,5,218
-3.0551,1.0091,-3.178,1.853,4.0097,1,0,1,5,219
4.9449,-2.9909,4.822,-4.147,0.0097195,0,0,1,5,220
-3.0551,5.0091,-3.178,4.853,0.0097195,0,0,0,5,221
4.9449,1.0091,4.822,-3.147,0.0097195,0,0,1,5,222
0.9449,5.0091,0.82202,0.85295,3.0097,1,0,0,5,223
3.9449,5.0091,3.822,4.853,0.0097195,0,0,1,5,224
3.9449,-0.99092,3.822,0.85295,0.0097195,0,0,0,5,225
2.9449,-0.99092,2.822,0.85295,0.0097195,0,0,0,5,226
-1.0551,2.0091,-1.178,-3.147,0.0097195,0,0,1,5,227
-2.0551,-0.99092,1.822,-1.147,0.0097195,0,0,0,5,228
0.9449,-0.99092,0.82202,0.85295,0.0097195,0,0,1,5,229
0.9449,-0.99092,0.82202,-1.147,-1.9903,1,0,0,5,230
-1.0551,5.0091,-1.178,-2.147,0.0097195,0,0,0,5,231
4.9449,-2.9909,4.822,-2.147,0.0097195,0,0,0,5,232
-3.0551,3.0091,-3.178,-2.147,0.0097195,0,0,0,5,233
2.9449,1.0091,2.822,0.85295,0.0097195,0,0,0,5,234
0.9449,4.0091,0.82202,-2.147,0.0097195,0,0,1,5,235
0.9449,3.0091,0.82202,2.853,0.0097195,0,0,1,5,236
0.9449,2.0091,0.82202,1.853,0.0097195,0,0,0,5,237
1.9449,0.009081,1.822,-2.147,0.0097195,0,0,1,5,238
1.9449,1.0091,3.822,-0.14705,0.0097195,0,0,0,5,239
-0.055101,1.0091,-0.17798,-0.14705,0.0097195,0,0,1,5,240
-0.055101,3.0091,-0.17798,2.853,0.0097195,0,0,0,5,241
2.9449,-0.99092,2.822,1.853,0.0097195,0,0,0,5,242
3.9449,-0.99092,3.822,1.853,0.0097195,0,0,1,5,243
-1.0551,4.0091,-1.178,0.85295,0.0097195,0,0,0,5,244
3.9449,-0.99092,3.822,-1.147,5.0097,1,0,1,5,245
0.9449,4.0091,0.82202,0.85295,0.0097195,0,0,0,5,246
-1.0551,4.0091,4.822,3.853,0.0097195,0,0,0,5,247
3.9449,1.0091,3.822,-1.147,0.0097195,0,0,1,5,248
1.9449,4.0091,0.82202,0.85295,0.0097195,0,0,1,5,249
1.9449,3.0091,1.822,2.853,0.0097195,0,0,1,5,250
-2.0551,4.0091,-2.178,-3.147,0.0097195,0,0,1,6,76
1.9449,-1.9909,1.822,-2.147,0.0097195,0,0,0,6,77
2.9449,-1.9909,2.822,-2.147,0.0097195,0,0,0,6,78
3.9449,-1.9909,3.822,-2.147,0.0097195,0,0,0,6,79
-2.0551,3.0091,-2.178,2.853,0.0097195,0,0,1,6,80
0.9449,-1.9909,2.822,-2.147,0.0097195,0,0,0,6,81
0.9449,-1.9909,2.822,-2.147,0.0097195,0,0,0,6,82
-2.0551,-1.9909,-2.178,-2.147,0.0097195,0,0,1,6,83
-2.0551,-1.9909,-2.178,-2.147,0.0097195,0,0,1,6,84
-2.0551,0.009081,-2.178,-0.14705,0.0097195,0,0,1,6,85
0.9449,-1.9909,-2.178,0.85295,0.0097195,0,0,0,6,86
-2.0551,0.009081,-2.178,-0.14705,0.0097195,0,0,1,6,87
-2.0551,0.009081,0.82202,0.85295,5.0097,1,0,1,6,88
-2.0551,-1.9909,0.82202,-2.147,0.0097195,0,0,1,6,89
-0.055101,-1.9909,4.822,0.85295,0.0097195,0,0,0,6,90
-2.0551,-2.9909,-2.178,-3.147,0.0097195,0,0,0,6,91
-2.0551,-2.9909,0.82202,-0.14705,0.0097195,0,0,0,6,92
-3.0551,-2.9909,-3.178,-0.14705,0.0097195,0,0,0,6,93
-3.0551,-2.9909,-2.178,-3.147,3.0097,1,0,0,6,94
-3.0551,-3.9909,-3.178,-3.147,0.0097195,0,0,0,6,95
1.9449,-3.9909,1.822,-3.147,0.0097195,0,0,0,6,96
-4.0551,1.0091,-4.178,-0.14705,0.0097195,0,0,1,6,97
-0.055101,-3.9909,0.82202,-3.147,0.0097195,0,0,0,6,98
-4.0551,0.009081,-3.178,-0.14705,-3.9903,1,0,1,6,99
-4.0551,-1.9909,-4.178,-2.147,0.0097195,0,0,0,6,100
-2.0551,5.0091,-4.178,-3.147,0.0097195,0,0,1,6,101
3.9449,-1.9909,3.822,-2.147,0.0097195,0,0,0,6,102
4.9449,-1.9909,4.822,-4.147,0.0097195,0,0,0,6,103
4.9449,-1.9909,4.822,-2.147,0.0097195,0,0,0,6,104
1.9449,-1.9909,4.822,-4.147,0.0097195,0,0,0,6,105
1.9449,-1.9909,1.822,-2.147,3.0097,1,0,1,6,106
1.9449,0.009081,1.822,-0.14705,0.0097195,0,0,1,6,107
1.9449,0.009081,-3.178,-0.14705,0.0097195,0,0,1,6,108
-1.0551,2.0091,-4.178,1.853,0.0097195,0,0,0,6,109
1.9449,-0.99092,-3.178,-1.147,-1.9903,1,0,0,6,110
-2.0551,-0.99092,-2.178,-2.147,0.0097195,0,0,1,6,111
-2.0551,-0.99092,-2.178,-1.147,0.0097195,0,0,1,6,112
-2.0551,-0.99092,-2.178,-1.147,0.0097195,0,0,1,6,113
-2.0551,-1.9909,-2.178,1.853,0.0097195,0,0,0,6,114
-2.0551,-1.9909,-2.178,-1.147,-2.9903,1,0,1,6,115
-2.0551,-1.9909,-2.178,-2.147,0.0097195,0,0,1,6,116
-2.0551,-1.9909,1.822,-2.147,0.0097195,0,0,0,6,117
-2.0551,2.0091,-3.178,1.853,0.0097195,0,0,1,6,118
1.9449,-1.9909,-2.178,-2.147,-3.9903,1,0,0,6,119
3.9449,-1.9909,3.822,-2.147,0.0097195,0,0,0,6,120
-2.0551,4.0091,-3.178,3.853,0.0097195,0,0,1,6,121
4.9449,-1.9909,3.822,-2.147,0.0097195,0,0,0,6,122
-2.0551,4.0091,-3.178,4.853,0.0097195,0,0,1,6,123
3.9449,-1.9909,3.822,-2.147,0.0097195,0,0,0,6,124
3.9449,-1.9909,3.822,-2.147,-4.9903,1,0,0,6,125
0.9449,-1.9909,4.822,-3.147,0.0097195,0,0,0,6,126
0.9449,-1.9909,2.822,-3.147,0.0097195,0,0,0,6,127
2.9449,-1.9909,0.82202,-2.147,0.0097195,0,0,0,6,128
-2.0551,4.0091,-3.178,3.853,0.0097195,0,0,1,6,129
-0.055101,-1.9909,2.822,-2.147,0.0097195,0,0,0,6,130
0.9449,-1.9909,0.82202,-3.147,0.0097195,0,0,0,6,131
0.9449,-1.9909,-0.17798,-2.147,-4.9903,1,0,0,6,132
3.9449,-1.9909,3.822,-2.147,0.0097195,0,0,0,6,133
-2.0551,5.0091,-3.178,4.853,0.0097195,0,0,1,6,134
-2.0551,3.0091,-3.178,2.853,0.0097195,0,0,1,6,135
4.9449,-1.9909,4.822,-3.147,0.0097195,0,0,0,6,136
4.9449,-1.9909,4.822,-2.147,0.0097195,0,0,0,6,137
2.9449,-1.9909,2.822,-2.147,0.0097195,0,0,0,6,138
2.9449,-1.9909,4.822,-3.147,-4.9903,1,0,0,6,139
1.9449,-1.9909,1.822,-3.147,0.0097195,0,0,0,6,140
-2.0551,1.0091,-3.178,4.853,0.0097195,0,0,1,6,141
-2.0551,3.0091,-3.178,2.853,0.0097195,0,0,1,6,142
-2.0551,0.009081,-3.178,-0.14705,0.0097195,0,0,1,6,143
1.9449,-1.9909,1.822,-2.147,0.0097195,0,0,0,6,144
1.9449,-1.9909,0.82202,-3.147,2.0097,1,0,0,6,145
4.9449,-1.9909,4.822,-3.147,0.0097195,0,0,0,6,146
4.9449,-1.9909,4.822,-3.147,0.0097195,0,0,0,6,147
-2.0551,5.0091,-3.178,-2.147,0.0097195,0,0,1,6,148
3.9449,-1.9909,4.822,-3.147,0.0097195,0,0,0,6,149
3.9449,-1.9909,3.822,-2.147,-4.9903,1,0,0,6,150
-2.0551,2.0091,-3.178,1.853,0.0097195,0,0,1,6,151
-2.0551,4.0091,-3.178,3.853,0.0097195,0,0,1,6,152
3.9449,-1.9909,4.822,-3.147,0.0097195,0,0,0,6,153
-2.0551,4.0091,-3.178,3.853,0.0097195,0,0,1,6,154
3.9449,-1.9909,3.822,-2.147,0.0097195,0,0,0,6,155
3.9449,-1.9909,3.822,-3.147,-2.9903,1,0,0,6,156
2.9449,-1.9909,2.822,-3.147,0.0097195,0,0,0,6,157
0.9449,-1.9909,0.82202,-2.147,0.0097195,0,0,0,6,158
2.9449,-1.9909,2.822,-3.147,0.0097195,0,0,0,6,159
3.9449,-1.9909,2.822,-2.147,0.0097195,0,0,0,6,160
1.9449,-1.9909,3.822,-2.147,0.0097195,0,0,0,6,161
1.9449,-1.9909,1.822,-2.147,0.0097195,0,0,0,6,162
1.9449,-1.9909,1.822,-2.147,-2.9903,1,0,0,6,163
-2.0551,4.0091,-3.178,2.853,0.0097195,0,0,1,6,164
2.9449,-1.9909,2.822,-2.147,0.0097195,0,0,0,6,165
-2.0551,2.0091,-3.178,1.853,0.0097195,0,0,1,6,166
-2.0551,3.0091,-3.178,2.853,0.0097195,0,0,1,6,167
2.9449,-1.9909,3.822,-2.147,-4.9903,1,0,0,6,168
-0.055101,-1.9909,-0.17798,-3.147,0.0097195,0,0,0,6,169
-2.0551,-1.9909,-2.178,-3.147,0.0097195,0,0,0,6,170
-1.0551,-1.9909,-1.178,-2.147,0.0097195,0,0,0,6,171
-1.0551,-1.9909,4.822,-2.147,-4.9903,1,0,0,6,172
3.9449,-1.9909,3.822,-2.147,0.0097195,0,0,0,6,173
4.9449,-1.9909,4.822,-3.147,0.0097195,0,0,0,6,174
2.9449,-1.9909,4.822,-2.147,0.0097195,0,0,0,6,175
2.9449,-1.9909,2.822,-2.147,0.0097195,0,0,0,6,176
-2.0551,5.0091,-3.178,2.853,0.0097195,0,0,1,6,177
-2.0551,3.0091,-3.178,2.853,0.0097195,0,0,1,6,178
2.9449,-1.9909,4.822,-3.147,-3.9903,1,0,0,6,179
2.9449,-1.9909,2.822,-2.147,0.0097195,0,0,0,6,180
-2.0551,2.0091,-3.178,3.853,0.0097195,0,0,1,6,181
4.9449,-1.9909,1.822,-2.147,0.0097195,0,0,0,6,182
-2.0551,4.0091,-3.178,4.853,0.0097195,0,0,1,6,183
2.9449,-1.9909,3.822,-3.147,0.0097195,0,0,0,6,184
-2.0551,3.0091,-3.178,2.853,5.0097,1,0,1,6,185
1.9449,-1.9909,1.822,-2.147,0.0097195,0,0,0,6,186
4.9449,-1.9909,4.822,-3.147,0.0097195,0,0,0,6,187
0.9449,-1.9909,0.82202,-3.147,0.0097195,0,0,0,6,188
-0.055101,-1.9909,4.822,-2.147,0.0097195,0,0,0,6,189
-0.055101,-1.9909,-0.17798,-3.147,-4.9903,1,0,0,6,190
-2.0551,-2.9909,-3.178,4.853,0.0097195,0,0,1,6,191
-2.0551,-2.9909,-3.178,-3.147,0.0097195,0,0,1,6,192
-2.0551,-1.9909,-3.178,-3.147,0.0097195,0,0,0,6,193
-2.0551,-2.9909,-3.178,-2.147,0.0097195,0,0,1,6,194
-2.0551,-1.9909,-3.178,-2.147,0.0097195,0,0,1,6,195
-3.0551,-1.9909,-3.178,-2.147,0.0097195,0,0,1,6,196
-4.0551,-2.9909,-3.178,-3.147,0.0097195,0,0,1,6,197
-3.0551,-3.9909,-3.178,-3.147,3.0097,1,0,0,6,198
-3.0551,-3.9909,-3.178,-4.147,0.0097195,0,0,0,6,199
-2.0551,-3.9909,-2.178,-3.147,0.0097195,0,0,0,6,200
-4.0551,-3.9909,-4.178,-3.147,0.0097195,0,0,0,6,201
-4.0551,-3.9909,-3.178,-4.147,4.0097,1,0,1,6,202
-3.0551,-3.9909,-3.178,-3.147,0.0097195,0,0,0,6,203
-3.0551,-3.9909,-3.178,-3.147,0.0097195,0,0,1,6,204
-3.0551,-1.9909,-3.178,-2.147,0.0097195,0,0,1,6,205
-2.0551,-2.9909,-4.178,-3.147,-2.9903,1,0,0,6,206
-2.0551,-2.9909,-2.178,-3.147,0.0097195,0,0,0,6,207
-3.0551,-2.9909,-3.178,-3.147,0.0097195,0,0,0,6,208
-1.0551,-2.9909,-1.178,-3.147,0.0097195,0,0,0,6,209
-1.0551,-2.9909,-1.178,-3.147,0.0097195,0,0,1,6,210
-1.0551,-3.9909,-1.178,-3.147,0.0097195,0,0,1,6,211
-1.0551,-0.99092,-4.178,2.853,0.0097195,0,0,1,6,212
-0.055101,-0.99092,-0.17798,-1.147,0.0097195,0,0,0,6,213
-0.055101,-0.99092,-1.178,-1.147,-2.9903,1,0,0,6,214
-1.0551,5.0091,-4.178,2.853,0.0097195,0,0,1,6,215
3.9449,-0.99092,3.822,-1.147,0.0097195,0,0,0,6,216
2.9449,-0.99092,4.822,-1.147,0.0097195,0,0,0,6,217
-1.0551,1.0091,-4.178,2.853,0.0097195,0,0,1,6,218
0.9449,-0.99092,0.82202,-1.147,2.0097,1,0,0,6,219
-2.0551,-0.99092,-2.178,-1.147,0.0097195,0,0,0,6,220
-3.0551,-0.99092,-2.178,-1.147,0.0097195,0,0,0,6,221
-2.0551,-0.99092,-2.178,-1.147,0.0097195,0,0,0,6,222
-1.0551,-1.9909,-4.178,-3.147,5.0097,1,0,1,6,223
-1.0551,-2.9909,-4.178,-3.147,0.0097195,0,0,1,6,224
-3.0551,-0.99092,-3.178,-1.147,0.0097195,0,0,0,6,225
-1.0551,-1.9909,-4.178,-2.147,0.0097195,0,0,1,6,226
0.9449,-0.99092,4.822,-1.147,0.0097195,0,0,0,6,227
-1.0551,2.0091,-4.178,0.85295,0.0097195,0,0,1,6,228
-1.0551,2.0091,-4.178,1.853,0.0097195,0,0,1,6,229
1.9449,-0.99092,1.822,-1.147,2.0097,1,0,0,6,230
-1.0551,2.0091,-4.178,-2.147,-2.9903,1,0,1,6,231
-1.0551,4.0091,-4.178,3.853,0.0097195,0,0,1,6,232
4.9449,-0.99092,4.822,-1.147,0.0097195,0,0,0,6,233
-1.0551,-0.99092,-3.178,-4.147,0.0097195,0,0,0,6,234
-1.0551,-0.99092,-4.178,-1.147,0.0097195,0,0,1,6,235
-3.0551,-0.99092,-3.178,-1.147,0.0097195,0,0,0,6,236
-3.0551,-0.99092,-3.178,-1.147,0.0097195,0,0,0,6,237
-1.0551,-2.9909,-4.178,-3.147,0.0097195,0,0,0,6,238
-3.0551,1.0091,-1.178,-1.147,0.0097195,0,0,1,6,239
-3.0551,-1.9909,-1.178,-2.147,0.0097195,0,0,0,6,240
-2.0551,1.0091,0.82202,-3.147,0.0097195,0,0,1,6,241
2.9449,-1.9909,0.82202,0.85295,0.0097195,0,0,0,6,242
2.9449,-1.9909,2.822,0.85295,0.0097195,0,0,0,6,243
-2.0551,0.009081,0.82202,2.853,0.0097195,0,0,1,6,244
-0.055101,-1.9909,-0.17798,0.85295,4.0097,1,0,0,6,245
1.9449,-1.9909,-4.178,-2.147,0.0097195,0,0,0,6,246
0.9449,-1.9909,0.82202,-2.147,0.0097195,0,0,0,6,247
-3.0551,-1.9909,1.822,0.85295,0.0097195,0,0,0,6,248
-3.0551,-1.9909,-3.178,-2.147,0.0097195,0,0,0,6,249
-3.0551,-1.9909,-3.178,0.85295,0.0097195,0,0,0,6,250
0.9449,3.0091,-0.17798,2.853,0.0097195,0,0,0,7,76
2.9449,4.0091,2.822,0.85295,0.0097195,0,0,1,7,77
2.9449,4.0091,2.822,3.853,0.0097195,0,0,1,7,78
2.9449,5.0091,-3.178,4.853,0.0097195,0,0,1,7,79
3.9449,3.0091,3.822,2.853,0.0097195,0,0,0,7,80
2.9449,3.0091,2.822,3.853,0.0097195,0,0,1,7,81
2.9449,3.0091,2.822,2.853,0.0097195,0,0,0,7,82
2.9449,1.0091,2.822,2.853,0.0097195,0,0,0,7,83
0.9449,0.009081,0.82202,-0.14705,0.0097195,0,0,1,7,84
0.9449,1.0091,0.82202,0.85295,0.0097195,0,0,1,7,85
1.9449,1.0091,1.822,2.853,0.0097195,0,0,0,7,86
0.9449,-0.99092,0.82202,-1.147,0.0097195,0,0,1,7,87
-1.0551,1.0091,-3.178,0.85295,3.0097,1,0,0,7,88
-1.0551,1.0091,-3.178,2.853,0.0097195,0,0,1,7,89
-1.0551,3.0091,-1.178,0.85295,0.0097195,0,0,1,7,90
-1.0551,2.0091,-3.178,2.853,0.0097195,0,0,1,7,91
-1.0551,0.009081,-1.178,-0.14705,0.0097195,0,0,1,7,92
-1.0551,-1.9909,-3.178,-2.147,0.0097195,0,0,0,7,93
-1.0551,-1.9909,-1.178,1.853,-4.9903,1,0,0,7,94
0.9449,-1.9909,4.822,-2.147,0.0097195,0,0,0,7,95
-2.0551,3.0091,1.822,2.853,0.0097195,0,0,1,7,96
1.9449,-1.9909,0.82202,1.853,0.0097195,0,0,0,7,97
1.9449,-1.9909,1.822,-2.147,0.0097195,0,0,0,7,98
-2.0551,2.0091,1.822,1.853,5.0097,1,0,1,7,99
1.9449,-1.9909,1.822,-2.147,0.0097195,0,0,0,7,100
-2.0551,1.0091,1.822,0.85295,0.0097195,0,0,1,7,101
2.9449,-1.9909,2.822,-2.147,0.0097195,0,0,0,7,102
-0.055101,-1.9909,4.822,-2.147,0.0097195,0,0,0,7,103
-2.0551,-3.9909,1.822,-0.14705,0.0097195,0,0,0,7,104
-4.0551,-2.9909,-4.178,-3.147,0.0097195,0,0,1,7,105
-4.0551,-2.9909,-0.17798,-2.147,4.0097,1,0,0,7,106
-3.0551,-2.9909,-4.178,3.853,0.0097195,0,0,1,7,107
-3.0551,0.009081,-3.178,-2.147,0.0097195,0,0,1,7,108
-3.0551,-3.9909,-4.178,-4.147,0.0097195,0,0,1,7,109
-3.0551,-0.99092,-4.178,-1.147,0.0097195,0,0,1,7,110
-3.0551,-2.9909,-3.178,-3.147,0.0097195,0,0,0,7,111
-3.0551,-2.9909,-4.178,-3.147,0.0097195,0,0,0,7,112
-3.0551,-2.9909,-3.178,-3.147,0.0097195,0,0,1,7,113
-3.0551,-2.9909,-0.17798,-3.147,0.0097195,0,0,1,7,114
-3.0551,-2.9909,-3.178,-0.14705,4.0097,1,0,1,7,115
-3.0551,-2.9909,-3.178,-2.147,0.0097195,0,0,1,7,116
-3.0551,-3.9909,-3.178,-4.147,0.0097195,0,0,1,7,117
-2.0551,-2.9909,-2.178,-4.147,0.0097195,0,0,0,7,118
-3.0551,-1.9909,-4.178,-3.147,-3.9903,1,0,1,7,119
-3.0551,-1.9909,-4.178,-2.147,0.0097195,0,0,1,7,120
-3.0551,-2.9909,-3.178,-3.147,0.0097195,0,0,0,7,121
-3.0551,0.009081,-4.178,-4.147,0.0097195,0,0,1,7,122
-2.0551,-2.9909,-0.17798,-3.147,0.0097195,0,0,0,7,123
-1.0551,-2.9909,-1.178,-4.147,0.0097195,0,0,1,7,124
-1.0551,-2.9909,-1.178,-3.147,-3.9903,1,0,1,7,125
-1.0551,-2.9909,-2.178,-3.147,0.0097195,0,0,1,7,126
-1.0551,-0.99092,-4.178,-2.147,0.0097195,0,0,0,7,127
-1.0551,-3.9909,-1.178,-4.147,0.0097195,0,0,0,7,128
-4.0551,0.009081,-4.178,-2.147,0.0097195,0,0,1,7,129
-4.0551,0.009081,-4.178,-0.14705,0.0097195,0,0,1,7,130
-0.055101,-3.9909,-0.17798,-1.147,0.0097195,0,0,0,7,131
-0.055101,-3.9909,-0.17798,-4.147,4.0097,1,0,0,7,132
-3.0551,-3.9909,-3.178,-4.147,0.0097195,0,0,0,7,133
-4.0551,-1.9909,-4.178,-4.147,0.0097195,0,0,1,7,134
-4.0551,-1.9909,-4.178,-2.147,0.0097195,0,0,0,7,135
3.9449,-1.9909,3.822,-2.147,0.0097195,0,0,0,7,136
-2.0551,3.0091,-2.178,-1.147,0.0097195,0,0,1,7,137
2.9449,-1.9909,2.822,-2.147,0.0097195,0,0,0,7,138
-2.0551,3.0091,-2.178,2.853,3.0097,1,0,1,7,139
-2.0551,3.0091,-2.178,2.853,0.0097195,0,0,1,7,140
-2.0551,2.0091,-2.178,1.853,0.0097195,0,0,1,7,141
-2.0551,2.0091,-2.178,1.853,0.0097195,0,0,1,7,142
-2.0551,1.0091,-2.178,0.85295,0.0097195,0,0,1,7,143
-2.0551,1.0091,-2.178,2.853,0.0097195,0,0,1,7,144
-2.0551,1.0091,-2.178,0.85295,5.0097,1,0,1,7,145
-2.0551,2.0091,-2.178,1.853,0.0097195,0,0,1,7,146
4.9449,-1.9909,4.822,-2.147,0.0097195,0,0,0,7,147
2.9449,-1.9909,2.822,-2.147,0.0097195,0,0,0,7,148
2.9449,-1.9909,2.822,-2.147,0.0097195,0,0,0,7,149
-2.0551,3.0091,-2.178,4.853,-3.9903,1,0,1,7,150
-2.0551,2.0091,-2.178,-4.147,0.0097195,0,0,1,7,151
-2.0551,2.0091,-2.178,1.853,0.0097195,0,0,1,7,152
-2.0551,3.0091,-2.178,1.853,0.0097195,0,0,1,7,153
2.9449,-1.9909,2.822,-2.147,0.0097195,0,0,0,7,154
-2.0551,4.0091,-2.178,3.853,0.0097195,0,0,1,7,155
-2.0551,4.0091,-2.178,2.853,-2.9903,1,0,1,7,156
-2.0551,3.0091,-2.178,2.853,0.0097195,0,0,1,7,157
4.9449,-1.9909,-3.178,-2.147,0.0097195,0,0,0,7,158
3.9449,-1.9909,3.822,-2.147,0.0097195,0,0,0,7,159
-2.0551,5.0091,-2.178,4.853,0.0097195,0,0,1,7,160
-2.0551,2.0091,-2.178,1.853,0.0097195,0,0,1,7,161
-3.0551,-1.9909,4.822,-2.147,0.0097195,0,0,0,7,162
-2.0551,-2.9909,-2.178,-3.147,4.0097,1,0,1,7,163
-2.0551,-2.9909,-2.178,-3.147,0.0097195,0,0,0,7,164
-3.0551,-2.9909,-3.178,-3.147,0.0097195,0,0,0,7,165
-3.0551,-1.9909,3.822,-2.147,0.0097195,0,0,1,7,166
-3.0551,-3.9909,3.822,-4.147,0.0097195,0,0,0,7,167
-4.0551,-2.9909,-2.178,-3.147,5.0097,1,0,0,7,168
-3.0551,-2.9909,-3.178,4.853,0.0097195,0,0,1,7,169
-2.0551,-2.9909,-2.178,-4.147,0.0097195,0,0,0,7,170
-2.0551,-2.9909,-2.178,-4.147,0.0097195,0,0,0,7,171
-3.0551,-1.9909,-3.178,-3.147,5.0097,1,0,1,7,172
-3.0551,1.0091,-3.178,4.853,0.0097195,0,0,1,7,173
-3.0551,3.0091,-3.178,2.853,0.0097195,0,0,1,7,174
-3.0551,4.0091,-3.178,3.853,0.0097195,0,0,1,7,175
-3.0551,2.0091,-3.178,1.853,0.0097195,0,0,1,7,176
-3.0551,3.0091,-3.178,2.853,0.0097195,0,0,1,7,177
3.9449,-2.9909,3.822,-4.147,0.0097195,0,0,0,7,178
-3.0551,4.0091,-3.178,0.85295,5.0097,1,0,1,7,179
-3.0551,4.0091,-3.178,3.853,0.0097195,0,0,1,7,180
-3.0551,2.0091,-3.178,4.853,0.0097195,0,0,1,7,181
3.9449,-2.9909,3.822,-4.147,0.0097195,0,0,0,7,182
-3.0551,3.0091,-4.178,1.853,0.0097195,0,0,1,7,183
-3.0551,5.0091,-4.178,4.853,0.0097195,0,0,1,7,184
4.9449,-2.9909,2.822,-4.147,-2.9903,1,0,0,7,185
3.9449,-2.9909,3.822,-4.147,0.0097195,0,0,0,7,186
-3.0551,4.0091,-4.178,2.853,0.0097195,0,0,1,7,187
3.9449,-2.9909,3.822,-4.147,0.0097195,0,0,0,7,188
-3.0551,4.0091,-4.178,3.853,0.0097195,0,0,1,7,189
-3.0551,4.0091,-3.178,3.853,5.0097,1,0,1,7,190
-3.0551,5.0091,-4.178,4.853,0.0097195,0,0,1,7,191
-3.0551,2.0091,-4.178,1.853,0.0097195,0,0,1,7,192
-3.0551,1.0091,-4.178,0.85295,0.0097195,0,0,1,7,193
-3.0551,1.0091,-3.178,3.853,0.0097195,0,0,1,7,194
-3.0551,0.009081,-3.178,-0.14705,0.0097195,0,0,1,7,195
2.9449,-2.9909,4.822,-4.147,0.0097195,0,0,0,7,196
-3.0551,1.0091,-4.178,2.853,0.0097195,0,0,1,7,197
-3.0551,1.0091,-3.178,0.85295,4.0097,1,0,1,7,198
1.9449,-2.9909,1.822,-4.147,0.0097195,0,0,0,7,199
1.9449,-2.9909,1.822,-4.147,0.0097195,0,0,0,7,200
-3.0551,2.0091,-3.178,1.853,0.0097195,0,0,1,7,201
-3.0551,2.0091,-3.178,3.853,-3.9903,1,0,1,7,202
1.9449,-2.9909,-4.178,-4.147,0.0097195,1,0,0,7,203
-3.0551,4.0091,-3.178,3.853,0.0097195,0,0,1,7,204
-3.0551,1.0091,-3.178,-0.14705,0.0097195,0,0,1,7,205
0.9449,-2.9909,0.82202,-4.147,2.0097,1,0,0,7,206
-3.0551,1.0091,-4.178,-2.147,0.0097195,0,0,1,7,207
-3.0551,1.0091,-3.178,0.85295,0.0097195,0,0,1,7,208
-3.0551,2.0091,-4.178,0.85295,0.0097195,0,0,1,7,209
2.9449,-2.9909,1.822,-4.147,0.0097195,0,0,0,7,210
-3.0551,1.0091,-4.178,2.853,0.0097195,0,0,1,7,211
-3.0551,1.0091,-3.178,0.85295,3.0097,1,0,1,7,212
1.9449,-2.9909,1.822,-4.147,0.0097195,0,0,0,7,213
-3.0551,2.0091,-4.178,2.853,5.0097,1,0,1,7,214
-3.0551,5.0091,-3.178,4.853,0.0097195,0,0,1,7,215
-3.0551,4.0091,-4.178,4.853,0.0097195,0,0,1,7,216
4.9449,-2.9909,3.822,-4.147,0.0097195,0,0,0,7,217
4.9449,-2.9909,4.822,-4.147,0.0097195,0,0,0,7,218
-3.0551,5.0091,-4.178,4.853,5.0097,1,0,1,7,219
-3.0551,3.0091,-3.178,4.853,0.0097195,0,0,1,7,220
-3.0551,2.0091,-4.178,2.853,0.0097195,0,0,1,7,221
-3.0551,3.0091,-4.178,2.853,0.0097195,0,0,1,7,222
-3.0551,3.0091,-3.178,1.853,5.0097,1,0,1,7,223
-3.0551,0.009081,-3.178,-0.14705,0.0097195,0,0,1,7,224
-3.0551,2.0091,-3.178,1.853,0.0097195,0,0,1,7,225
-3.0551,3.0091,-3.178,4.853,0.0097195,0,0,1,7,226
2.9449,-2.9909,2.822,-4.147,0.0097195,0,0,0,7,227
-3.0551,0.009081,-4.178,2.853,0.0097195,0,0,1,7,228
-3.0551,-0.99092,-4.178,-1.147,0.0097195,0,0,1,7,229
-1.0551,-2.9909,-0.17798,-4.147,4.0097,1,0,1,7,230
0.9449,-0.99092,-3.178,-4.147,0.0097195,0,0,0,7,231
0.9449,-0.99092,0.82202,-4.147,0.0097195,0,0,0,7,232
1.9449,-0.99092,1.822,-0.14705,0.0097195,0,0,0,7,233
-1.0551,0.009081,-0.17798,0.85295,0.0097195,0,0,1,7,234
-2.0551,-0.99092,-2.178,-4.147,0.0097195,0,0,1,7,235
-2.0551,0.009081,-2.178,-0.14705,0.0097195,0,0,1,7,236
-2.0551,-1.9909,-2.178,-2.147,0.0097195,0,0,1,7,237
-2.0551,-1.9909,-0.17798,-2.147,0.0097195,0,0,0,7,238
-0.055101,-1.9909,-0.17798,-2.147,0.0097195,0,0,0,7,239
0.9449,-1.9909,0.82202,-2.147,0.0097195,0,0,0,7,240
-2.0551,4.0091,-2.178,-2.147,0.0097195,0,0,1,7,241
-1.0551,-1.9909,3.822,-2.147,0.0097195,0,0,0,7,242
-0.055101,-1.9909,-0.17798,-2.147,0.0097195,0,0,0,7,243
-2.0551,-0.99092,-0.17798,-1.147,0.0097195,0,0,1,7,244
-2.0551,-0.99092,-2.178,-1.147,5.0097,1,0,1,7,245
-2.0551,-1.9909,4.822,-2.147,0.0097195,0,0,0,7,246
-2.0551,-1.9909,-0.17798,-2.147,0.0097195,0,0,1,7,247
-2.0551,-1.9909,-0.17798,-2.147,0.0097195,0,0,1,7,248
-2.0551,2.0091,-0.17798,-2.147,0.0097195,0,0,1,7,249
-2.0551,2.0091,-0.17798,1.853,0.0097195,0,0,1,7,250
-0.055101,1.0091,-0.17798,1.853,0.0097195,0,0,1,8,77
-0.055101,0.009081,-0.17798,-0.14705,0.0097195,0,0,1,8,78
-0.055101,0.009081,-0.17798,-0.14705,0.0097195,0,0,0,8,79
0.9449,0.009081,0.82202,-0.14705,0.0097195,0,0,1,8,80
-1.0551,1.0091,-0.17798,0.85295,0.0097195,0,0,1,8,81
-1.0551,-0.99092,0.82202,-1.147,0.0097195,0,0,0,8,82
-2.0551,-0.99092,-2.178,-1.147,0.0097195,0,0,0,8,83
-1.0551,0.009081,-0.17798,-1.147,0.0097195,0,0,1,8,84
-1.0551,2.0091,-0.17798,1.853,0.0097195,0,0,1,8,85
-1.0551,2.0091,-1.178,1.853,0.0097195,0,0,0,8,86
-2.0551,2.0091,-0.17798,-0.14705,0.0097195,0,0,0,8,87
-2.0551,2.0091,-2.178,1.853,3.0097,1,0,1,8,88
-2.0551,5.0091,-2.178,4.853,0.0097195,0,0,0,8,89
-1.0551,5.0091,-1.178,4.853,0.0097195,0,0,0,8,90
-2.0551,5.0091,-3.178,4.853,0.0097195,0,0,1,8,91
-2.0551,3.0091,-3.178,-0.14705,0.0097195,0,0,0,8,92
-2.0551,3.0091,-2.178,2.853,0.0097195,0,0,1,8,93
-2.0551,3.0091,-2.178,-0.14705,-3.9903,1,0,0,8,94
2.9449,0.009081,-0.17798,-2.147,0.0097195,0,0,1,8,95
2.9449,3.0091,-0.17798,2.853,0.0097195,0,0,1,8,96
2.9449,3.0091,-0.17798,-4.147,0.0097195,0,0,1,8,97
2.9449,5.0091,-0.17798,-0.14705,0.0097195,0,0,1,8,98
2.9449,5.0091,-0.17798,4.853,3.0097,1,0,0,8,99
3.9449,5.0091,3.822,2.853,0.0097195,0,0,1,8,100
-3.0551,4.0091,-3.178,2.853,0.0097195,0,0,0,8,101
3.9449,-2.9909,3.822,4.853,0.0097195,0,0,1,8,102
3.9449,-0.99092,3.822,-1.147,0.0097195,0,0,0,8,103
-1.0551,-0.99092,-1.178,-1.147,0.0097195,0,0,0,8,104
-1.0551,-3.9909,-3.178,2.853,0.0097195,0,0,1,8,105
-4.0551,-0.99092,-4.178,-3.147,4.0097,1,0,1,8,106
-4.0551,2.0091,-4.178,-1.147,0.0097195,0,0,1,8,107
3.9449,-3.9909,1.822,-4.147,0.0097195,0,0,1,8,108
3.9449,-2.9909,1.822,-3.147,0.0097195,0,0,1,8,109
3.9449,-2.9909,1.822,-3.147,0.0097195,0,0,0,8,110
4.9449,-2.9909,4.822,-3.147,0.0097195,0,0,0,8,111
1.9449,-2.9909,1.822,-3.147,0.0097195,0,0,1,8,112
4.9449,2.0091,-4.178,1.853,0.0097195,0,0,1,8,113
3.9449,5.0091,3.822,4.853,0.0097195,0,0,1,8,114
4.9449,4.0091,-4.178,3.853,4.0097,1,0,0,8,115
3.9449,1.0091,3.822,-4.147,0.0097195,0,0,0,8,116
1.9449,1.0091,1.822,-4.147,0.0097195,0,0,0,8,117
0.9449,5.0091,0.82202,4.853,0.0097195,0,0,1,8,118
0.9449,5.0091,0.82202,3.853,-2.9903,1,0,1,8,119
0.9449,3.0091,0.82202,-3.147,0.0097195,0,0,0,8,120
0.9449,3.0091,0.82202,2.853,0.0097195,0,0,1,8,121
0.9449,5.0091,-4.178,4.853,0.0097195,0,0,1,8,122
1.9449,1.0091,-3.178,-4.147,0.0097195,0,0,0,8,123
0.9449,4.0091,-4.178,1.853,0.0097195,0,0,0,8,124
0.9449,4.0091,0.82202,3.853,-4.9903,1,0,1,8,125
0.9449,3.0091,4.822,1.853,0.0097195,0,0,1,8,126
0.9449,4.0091,0.82202,2.853,0.0097195,0,0,0,8,127
3.9449,4.0091,3.822,2.853,0.0097195,0,0,0,8,128
3.9449,-0.99092,2.822,4.853,0.0097195,0,0,1,8,129
3.9449,-3.9909,2.822,-4.147,0.0097195,0,0,0,8,130
-4.0551,0.009081,-1.178,3.853,0.0097195,0,0,1,8,131
-0.055101,-3.9909,-0.17798,-4.147,-2.9903,1,0,1,8,132
-0.055101,0.009081,-0.17798,-0.14705,0.0097195,0,0,0,8,133
-0.055101,0.009081,-0.17798,-0.14705,0.0097195,0,0,1,8,134
-3.0551,0.009081,-3.178,2.853,0.0097195,0,0,1,8,135
0.9449,-2.9909,-0.17798,-3.147,0.0097195,0,0,0,8,136
-3.0551,-0.99092,-1.178,-1.147,0.0097195,0,0,1,8,137
-3.0551,-0.99092,-1.178,0.85295,0.0097195,0,0,1,8,138
-3.0551,-0.99092,-1.178,-1.147,5.0097,1,0,0,8,139
-1.0551,-3.9909,-1.178,-3.147,0.0097195,0,0,1,8,140
-4.0551,-0.99092,-4.178,4.853,0.0097195,0,0,1,8,141
-4.0551,-1.9909,-4.178,-2.147,0.0097195,0,0,1,8,142
-3.0551,-3.9909,-1.178,-4.147,0.0097195,0,0,1,8,143
-2.0551,-2.9909,-4.178,-1.147,0.0097195,0,0,0,8,144
-2.0551,-2.9909,-2.178,-3.147,-2.9903,1,0,0,8,145
-3.0551,-2.9909,2.822,-1.147,0.0097195,0,0,0,8,146
-3.0551,-2.9909,-3.178,-1.147,0.0097195,0,0,1,8,147
-3.0551,-3.9909,-3.178,-3.147,0.0097195,0,0,0,8,148
-4.0551,-3.9909,-3.178,-4.147,0.0097195,0,0,0,8,149
-4.0551,-3.9909,-4.178,-4.147,5.0097,1,0,1,8,151
-3.0551,-3.9909,4.822,-3.147,0.0097195,0,0,1,8,152
-3.0551,-1.9909,4.822,-4.147,0.0097195,0,0,1,8,153
-3.0551,-2.9909,-3.178,-2.147,0.0097195,0,0,0,8,154
-3.0551,-0.99092,-3.178,-1.147,0.0097195,0,0,0,8,155
-1.0551,-2.9909,-1.178,-2.147,-3.9903,1,0,1,8,156
-3.0551,-0.99092,-4.178,-1.147,0.0097195,0,0,0,8,157
-1.0551,-2.9909,4.822,-3.147,0.0097195,0,0,0,8,158
-4.0551,-2.9909,-1.178,-3.147,0.0097195,0,0,1,8,159
-4.0551,-0.99092,-4.178,-3.147,0.0097195,0,0,1,8,160
2.9449,-3.9909,2.822,-1.147,0.0097195,0,0,0,8,161
-4.0551,1.0091,-4.178,-1.147,0.0097195,0,0,1,8,162
0.9449,-3.9909,0.82202,-1.147,3.0097,1,0,1,8,163
-0.055101,1.0091,-4.178,0.85295,0.0097195,0,0,1,8,164
2.9449,0.009081,2.822,-0.14705,0.0097195,0,0,0,8,165
-0.055101,3.0091,-4.178,-3.147,0.0097195,0,0,1,8,166
-0.055101,4.0091,-0.17798,3.853,0.0097195,0,0,0,8,167
-0.055101,4.0091,-4.178,2.853,4.0097,1,0,0,8,168
-3.0551,4.0091,-4.178,3.853,0.0097195,0,0,0,8,169
-3.0551,4.0091,-3.178,2.853,0.0097195,0,0,1,8,170
-3.0551,4.0091,-3.178,3.853,0.0097195,0,0,1,8,171
3.9449,-2.9909,3.822,-3.147,3.0097,1,0,0,8,172
-3.0551,4.0091,-3.178,1.853,0.0097195,0,0,0,8,173
3.9449,-1.9909,1.822,-3.147,0.0097195,0,0,1,8,174
3.9449,-2.9909,1.822,-3.147,0.0097195,0,0,1,8,175
3.9449,-1.9909,1.822,-2.147,0.0097195,0,0,0,8,176
-2.0551,-1.9909,-2.178,-2.147,0.0097195,0,0,1,8,177
0.9449,-1.9909,0.82202,-2.147,0.0097195,0,0,0,8,178
-2.0551,1.0091,-2.178,-3.147,3.0097,1,0,0,8,179
-2.0551,1.0091,0.82202,-3.147,0.0097195,0,0,1,8,180
-1.0551,-1.9909,2.822,-2.147,0.0097195,0,0,0,8,181
-2.0551,-0.99092,-2.178,-1.147,0.0097195,0,0,1,8,182
-2.0551,-2.9909,0.82202,-1.147,0.0097195,0,0,1,8,183
-3.0551,-1.9909,-3.178,-2.147,0.0097195,0,0,0,8,184
-2.0551,-2.9909,0.82202,-3.147,-3.9903,1,0,0,8,185
-3.0551,-2.9909,-4.178,-2.147,0.0097195,0,0,0,8,186
-4.0551,-2.9909,-4.178,-2.147,0.0097195,0,0,0,8,187
-3.0551,-2.9909,-2.178,-3.147,0.0097195,0,0,0,8,188
4.9449,-2.9909,-3.178,-3.147,0.0097195,0,0,1,8,189
4.9449,-2.9909,-3.178,-3.147,-3.9903,1,0,1,8,190
-2.0551,5.0091,-2.178,4.853,0.0097195,0,0,0,8,191
4.9449,-1.9909,-3.178,-3.147,0.0097195,0,0,1,8,192
4.9449,-3.9909,4.822,-4.147,0.0097195,0,0,0,8,193
2.9449,-3.9909,2.822,-4.147,0.0097195,0,0,0,8,194
4.9449,-3.9909,-3.178,-4.147,0.0097195,0,0,0,8,195
3.9449,-3.9909,4.822,-4.147,0.0097195,0,0,1,8,196
3.9449,-1.9909,3.822,-4.147,0.0097195,0,0,1,8,197
3.9449,-1.9909,4.822,-2.147,-3.9903,1,0,1,8,198
3.9449,0.009081,3.822,-4.147,0.0097195,0,0,1,8,199
3.9449,2.0091,3.822,1.853,0.0097195,0,0,1,8,200
3.9449,4.0091,3.822,4.853,0.0097195,0,0,1,8,201
3.9449,4.0091,3.822,3.853,3.0097,1,0,1,8,202
3.9449,0.009081,-3.178,-0.14705,0.0097195,0,0,0,8,203
-0.055101,4.0091,-0.17798,-1.147,0.0097195,0,0,1,8,204
-0.055101,-2.9909,-0.17798,-3.147,0.0097195,0,0,0,8,205
-3.0551,0.009081,-3.178,-0.14705,-3.9903,1,0,1,8,206
-3.0551,-2.9909,3.822,-3.147,0.0097195,0,0,0,8,207
-0.055101,-2.9909,-3.178,-3.147,0.0097195,0,0,0,8,208
-1.0551,-2.9909,-1.178,-3.147,0.0097195,0,0,0,8,209
-3.0551,-0.99092,-4.178,-1.147,0.0097195,0,0,0,8,210
-1.0551,-0.99092,-0.17798,-1.147,0.0097195,0,0,0,8,212
-1.0551,0.009081,-1.178,-1.147,0.0097195,0,0,0,8,213
-0.055101,-0.99092,-0.17798,-3.147,-1.9903,1,0,1,8,214
-1.0551,0.009081,-2.178,-1.147,0.0097195,0,0,0,8,215
-1.0551,0.009081,-1.178,-1.147,0.0097195,0,0,0,8,216
-0.055101,3.0091,-0.17798,2.853,0.0097195,0,0,0,8,217
2.9449,-0.99092,2.822,-1.147,0.0097195,0,0,0,8,218
-1.0551,3.0091,-1.178,-1.147,-1.9903,1,0,0,8,219
2.9449,-1.9909,-2.178,-2.147,0.0097195,0,0,0,8,220
-2.0551,1.0091,-1.178,0.85295,0.0097195,0,0,1,8,221
0.9449,-1.9909,0.82202,-2.147,0.0097195,0,0,1,8,222
-2.0551,1.0091,-1.178,-1.147,-3.9903,1,0,1,8,223
3.9449,-1.9909,0.82202,3.853,0.0097195,0,0,0,8,224
3.9449,-1.9909,3.822,3.853,0.0097195,0,0,0,8,225
-2.0551,5.0091,3.822,3.853,0.0097195,0,0,1,8,226
2.9449,-1.9909,4.822,3.853,0.0097195,0,0,1,8,227
2.9449,-0.99092,4.822,-1.147,0.0097195,0,0,1,8,228
2.9449,-0.99092,4.822,-1.147,0.0097195,0,0,1,8,229
-1.0551,3.0091,-1.178,2.853,4.0097,1,0,0,8,230
-2.0551,3.0091,-2.178,4.853,0.0097195,0,0,0,8,231
-2.0551,3.0091,-4.178,2.853,0.0097195,0,0,0,8,232
2.9449,-2.9909,4.822,-3.147,0.0097195,0,0,1,8,233
-2.0551,3.0091,-2.178,2.853,0.0097195,0,0,0,8,234
2.9449,0.009081,4.822,-2.147,0.0097195,0,0,1,8,235
1.9449,3.0091,-0.17798,4.853,0.0097195,0,0,1,8,236
1.9449,3.0091,-0.17798,2.853,0.0097195,0,0,1,8,237
1.9449,2.0091,1.822,2.853,0.0097195,0,0,0,8,238
-0.055101,2.0091,-0.17798,2.853,0.0097195,0,0,0,8,239
-3.0551,2.0091,-0.17798,2.853,0.0097195,0,0,0,8,240
-1.0551,2.0091,-3.178,2.853,0.0097195,0,0,0,8,241
-1.0551,2.0091,-1.178,1.853,0.0097195,0,0,0,8,242
0.9449,2.0091,0.82202,1.853,0.0097195,0,0,0,8,243
3.9449,2.0091,3.822,2.853,0.0097195,0,0,0,8,244
1.9449,4.0091,1.822,-1.147,4.0097,1,0,0,8,245
3.9449,-2.9909,3.822,-3.147,0.0097195,0,0,0,8,246
2.9449,-2.9909,2.822,2.853,0.0097195,0,0,0,8,247
1.9449,-2.9909,1.822,-3.147,0.0097195,0,0,1,8,248
1.9449,-0.99092,1.822,2.853,0.0097195,0,0,0,8,249
2.9449,-0.99092,2.822,-1.147,0.0097195,0,0,1,8,250
0.9449,3.0091,0.82202,0.85295,0.0097195,0,0,0,9,76
2.9449,-3.9909,2.822,4.853,0.0097195,0,0,0,9,77
-4.0551,0.009081,-4.178,-0.14705,0.0097195,0,0,1,9,78
-0.055101,-3.9909,-0.17798,4.853,0.0097195,0,0,1,9,79
-3.0551,0.009081,-4.178,-0.14705,0.0097195,0,0,1,9,80
-3.0551,4.0091,-3.178,0.85295,0.0097195,0,0,1,9,81
1.9449,-2.9909,3.822,-3.147,0.0097195,0,0,0,9,82
2.9449,-2.9909,2.822,-3.147,0.0097195,0,0,0,9,83
-3.0551,1.0091,-3.178,1.853,0.0097195,0,0,1,9,84
-3.0551,2.0091,-4.178,1.853,0.0097195,0,0,1,9,85
-3.0551,2.0091,-4.178,0.85295,0.0097195,0,0,1,9,86
-3.0551,5.0091,-4.178,1.853,0.0097195,0,0,1,9,87
-3.0551,5.0091,-4.178,4.853,-3.9903,1,0,0,9,88
4.9449,4.0091,4.822,-3.147,0.0097195,0,0,1,9,89
3.9449,5.0091,3.822,-4.147,0.0097195,0,0,0,9,90
4.9449,5.0091,4.822,4.853,0.0097195,0,0,1,9,91
3.9449,5.0091,3.822,-4.147,0.0097195,0,0,0,9,92
4.9449,5.0091,3.822,4.853,0.0097195,0,0,0,9,93
4.9449,5.0091,4.822,-4.147,3.0097,1,0,1,9,94
4.9449,-1.9909,-3.178,4.853,0.0097195,0,0,1,9,95
4.9449,-0.99092,4.822,-2.147,0.0097195,0,0,0,9,96
-2.0551,-0.99092,-3.178,-1.147,0.0097195,0,0,1,9,97
-0.055101,-1.9909,-0.17798,-2.147,0.0097195,0,0,0,9,98
-2.0551,0.009081,-3.178,-2.147,3.0097,1,0,1,9,99
2.9449,-1.9909,2.822,-2.147,0.0097195,0,0,0,9,100
-2.0551,3.0091,-3.178,2.853,0.0097195,0,0,1,9,101
-2.0551,2.0091,-3.178,1.853,0.0097195,0,0,1,9,102
-2.0551,-0.99092,-3.178,-1.147,0.0097195,0,0,0,9,103
-1.0551,-0.99092,-1.178,-1.147,0.0097195,0,0,0,9,104
-0.055101,-0.99092,-0.17798,-1.147,0.0097195,0,0,0,9,105
-0.055101,-0.99092,-2.178,2.853,-4.9903,1,0,0,9,106
3.9449,-0.99092,4.822,-1.147,0.0097195,0,0,0,9,107
-1.0551,3.0091,-1.178,3.853,0.0097195,0,0,1,9,108
3.9449,-0.99092,2.822,-1.147,0.0097195,0,0,0,9,109
2.9449,-0.99092,3.822,2.853,0.0097195,0,0,0,9,110
2.9449,-0.99092,2.822,2.853,0.0097195,0,0,0,9,111
2.9449,-0.99092,2.822,2.853,0.0097195,0,0,0,9,112
3.9449,-0.99092,3.822,2.853,0.0097195,0,0,0,9,113
4.9449,-0.99092,2.822,2.853,0.0097195,0,0,0,9,114
4.9449,-0.99092,4.822,-1.147,-4.9903,1,0,0,9,115
-1.0551,4.0091,-1.178,4.853,0.0097195,0,0,1,9,116
2.9449,-0.99092,3.822,2.853,0.0097195,0,0,1,9,117
-1.0551,3.0091,-1.178,2.853,0.0097195,0,0,1,9,118
2.9449,-0.99092,3.822,-1.147,4.0097,1,0,0,9,119
3.9449,-0.99092,3.822,-1.147,0.0097195,0,0,0,9,120
-1.0551,3.0091,-1.178,-4.147,0.0097195,0,0,1,9,121
3.9449,-0.99092,2.822,-1.147,0.0097195,0,0,0,9,122
-1.0551,4.0091,-1.178,3.853,0.0097195,0,0,1,9,123
-1.0551,4.0091,-1.178,3.853,0.0097195,0,0,1,9,124
3.9449,-0.99092,3.822,-1.147,3.0097,1,0,1,9,125
-1.0551,4.0091,-1.178,-3.147,0.0097195,0,0,0,9,126
3.9449,-2.9909,3.822,-1.147,0.0097195,0,0,1,9,127
-2.0551,4.0091,-3.178,-3.147,0.0097195,0,0,0,9,128
3.9449,-0.99092,3.822,-1.147,0.0097195,0,0,1,9,129
-3.0551,4.0091,-3.178,-3.147,0.0097195,0,0,1,9,130
-2.0551,-2.9909,3.822,-2.147,0.0097195,0,0,0,9,131
-2.0551,-2.9909,-2.178,-2.147,-2.9903,1,0,0,9,132
-4.0551,-2.9909,2.822,-3.147,0.0097195,0,0,0,9,133
-3.0551,-1.9909,-3.178,-4.147,0.0097195,0,0,1,9,134
-3.0551,-2.9909,-3.178,-3.147,0.0097195,0,0,1,9,135
-3.0551,-2.9909,-2.178,-3.147,0.0097195,0,0,1,9,136
2.9449,-2.9909,2.822,-3.147,0.0097195,0,0,0,9,137
-3.0551,4.0091,-2.178,3.853,0.0097195,0,0,1,9,138
-3.0551,4.0091,-2.178,-2.147,-3.9903,1,0,0,9,139
3.9449,-1.9909,-4.178,-3.147,0.0097195,0,0,1,9,140
3.9449,-2.9909,-4.178,-3.147,0.0097195,0,0,1,9,141
3.9449,-2.9909,-4.178,-3.147,0.0097195,0,0,1,9,142
-3.0551,4.0091,-2.178,-4.147,0.0097195,0,0,0,9,143
-0.055101,4.0091,-3.178,-2.147,0.0097195,0,0,0,9,144
-0.055101,4.0091,-0.17798,-2.147,-2.9903,1,0,0,9,145
3.9449,4.0091,-4.178,2.853,0.0097195,0,0,1,9,146
3.9449,4.0091,-4.178,3.853,0.0097195,0,0,1,9,147
3.9449,4.0091,3.822,-4.147,0.0097195,0,0,0,9,148
4.9449,4.0091,4.822,-2.147,0.0097195,0,0,0,9,149
4.9449,4.0091,3.822,-2.147,-3.9903,1,0,0,9,150
3.9449,4.0091,3.822,-4.147,0.0097195,0,0,0,9,151
1.9449,4.0091,1.822,-4.147,0.0097195,0,0,0,9,152
3.9449,4.0091,3.822,-4.147,0.0097195,0,0,0,9,153
3.9449,2.0091,-4.178,3.853,0.0097195,0,0,0,9,154
1.9449,-2.9909,1.822,-3.147,0.0097195,0,0,0,9,155
1.9449,-2.9909,3.822,-2.147,4.0097,1,0,0,9,156
-1.0551,-2.9909,-4.178,-2.147,0.0097195,0,0,0,9,157
-3.0551,0.009081,-3.178,-1.147,0.0097195,0,0,1,9,158
2.9449,-2.9909,2.822,-2.147,0.0097195,0,0,0,9,159
2.9449,-2.9909,-0.17798,-2.147,0.0097195,0,0,0,9,160
4.9449,-2.9909,4.822,-2.147,0.0097195,0,0,0,9,161
0.9449,-2.9909,-0.17798,-3.147,0.0097195,0,0,0,9,162
-3.0551,1.0091,-3.178,0.85295,-3.9903,1,0,1,9,163
-3.0551,5.0091,-3.178,4.853,0.0097195,0,0,1,9,164
1.9449,-2.9909,1.822,-2.147,0.0097195,0,0,0,9,165
3.9449,-2.9909,-4.178,-2.147,0.0097195,0,0,0,9,166
3.9449,-2.9909,3.822,-3.147,0.0097195,0,0,0,9,167
3.9449,-2.9909,3.822,-2.147,4.0097,1,0,1,9,168
3.9449,-0.99092,-4.178,-3.147,0.0097195,0,0,1,9,169
3.9449,2.0091,-4.178,1.853,0.0097195,0,0,1,9,170
3.9449,2.0091,3.822,-1.147,0.0097195,0,0,0,9,171
3.9449,2.0091,-4.178,1.853,2.0097,1,0,1,9,172
3.9449,3.0091,-2.178,-1.147,0.0097195,0,0,1,9,173
3.9449,3.0091,-4.178,2.853,0.0097195,0,0,1,9,174
3.9449,4.0091,-4.178,3.853,0.0097195,0,0,1,9,175
3.9449,3.0091,-4.178,2.853,0.0097195,0,0,1,9,176
3.9449,1.0091,-4.178,2.853,0.0097195,0,0,1,9,177
0.9449,4.0091,0.82202,-2.147,0.0097195,0,0,0,9,178
3.9449,1.0091,-4.178,0.85295,3.0097,1,0,1,9,179
2.9449,4.0091,2.822,-2.147,0.0097195,0,0,0,9,180
0.9449,4.0091,0.82202,-2.147,0.0097195,0,0,0,9,181
3.9449,4.0091,3.822,-2.147,0.0097195,0,0,0,9,182
3.9449,2.0091,-4.178,1.853,0.0097195,0,0,1,9,183
3.9449,1.0091,-4.178,0.85295,0.0097195,0,0,1,9,184
3.9449,1.0091,-4.178,2.853,-2.9903,1,0,0,9,185
3.9449,1.0091,3.822,2.853,0.0097195,0,0,0,9,186
3.9449,1.0091,-2.178,2.853,0.0097195,0,0,0,9,187
0.9449,4.0091,-3.178,3.853,0.0097195,0,0,1,9,188
3.9449,1.0091,3.822,2.853,0.0097195,0,0,0,9,189
3.9449,1.0091,3.822,2.853,4.0097,1,0,0,9,190
0.9449,4.0091,-3.178,3.853,0.0097195,0,0,1,9,191
0.9449,1.0091,-3.178,0.85295,0.0097195,0,0,1,9,192
1.9449,1.0091,-4.178,2.853,0.0097195,0,0,0,9,193
1.9449,1.0091,1.822,2.853,0.0097195,0,0,0,9,194
0.9449,-0.99092,-3.178,1.853,0.0097195,0,0,0,9,195
-1.0551,4.0091,-1.178,3.853,0.0097195,0,0,1,9,196
-1.0551,3.0091,-1.178,2.853,0.0097195,0,0,1,9,197
2.9449,-0.99092,2.822,1.853,-2.9903,1,0,0,9,198
-1.0551,3.0091,-1.178,2.853,0.0097195,0,0,1,9,199
-1.0551,4.0091,1.822,3.853,0.0097195,0,0,1,9,200
0.9449,-0.99092,2.822,1.853,0.0097195,0,0,0,9,201
-1.0551,1.0091,1.822,0.85295,4.0097,1,0,1,9,202
-1.0551,0.009081,1.822,-0.14705,0.0097195,0,0,0,9,203
-0.055101,-2.9909,3.822,-3.147,0.0097195,0,0,1,9,204
-0.055101,-1.9909,3.822,-2.147,0.0097195,0,0,1,9,205
-2.0551,0.009081,-1.178,-0.14705,-2.9903,1,0,0,9,206
-0.055101,-3.9909,3.822,2.853,0.0097195,0,0,0,9,207
-2.0551,-3.9909,-2.178,2.853,0.0097195,0,0,0,9,208
-2.0551,-3.9909,-2.178,2.853,0.0097195,0,0,1,9,209
-1.0551,-1.9909,-4.178,-0.14705,0.0097195,0,0,0,9,210
-1.0551,-1.9909,-1.178,-0.14705,0.0097195,0,0,0,9,211
-0.055101,-1.9909,-1.178,-0.14705,0.0097195,0,0,0,9,212
-4.0551,-1.9909,-4.178,-0.14705,0.0097195,0,0,1,9,213
-4.0551,-1.9909,-4.178,-2.147,-2.9903,1,0,1,9,214
-4.0551,0.009081,-0.17798,-3.147,0.0097195,0,0,1,9,215
-3.0551,-3.9909,-0.17798,-0.14705,0.0097195,0,0,1,9,216
-3.0551,-2.9909,-4.178,-3.147,0.0097195,0,0,0,9,217
-1.0551,-2.9909,-1.178,-3.147,0.0097195,0,0,0,9,218
-1.0551,-2.9909,-3.178,-3.147,4.0097,1,0,0,9,219
-3.0551,-2.9909,-4.178,-0.14705,0.0097195,0,0,0,9,220
-1.0551,-2.9909,-1.178,-3.147,0.0097195,0,0,1,9,221
-1.0551,-0.99092,-0.17798,-3.147,0.0097195,0,0,0,9,222
-1.0551,-0.99092,-3.178,-1.147,-3.9903,1,0,1,9,223
-1.0551,2.0091,-1.178,1.853,0.0097195,0,0,1,9,224
0.9449,-0.99092,-4.178,-3.147,0.0097195,0,0,0,9,225
-1.0551,1.0091,-1.178,0.85295,0.0097195,0,0,1,9,226
-1.0551,1.0091,-1.178,0.85295,0.0097195,0,0,1,9,227
1.9449,-0.99092,1.822,-3.147,0.0097195,0,0,0,9,228
-1.0551,2.0091,-3.178,0.85295,1.0097,1,0,1,9,229
-1.0551,2.0091,-1.178,0.85295,5.0097,1,0,1,9,230
2.9449,-0.99092,2.822,-3.147,0.0097195,0,0,0,9,231
3.9449,-0.99092,3.822,-3.147,0.0097195,0,0,0,9,232
3.9449,-0.99092,3.822,-3.147,0.0097195,0,0,0,9,233
-1.0551,5.0091,-1.178,4.853,0.0097195,0,0,1,9,234
3.9449,-0.99092,3.822,-3.147,0.0097195,0,0,0,9,235
-1.0551,4.0091,-3.178,4.853,0.0097195,0,0,1,9,236
-1.0551,5.0091,-1.178,4.853,0.0097195,0,0,1,9,237
-1.0551,3.0091,-1.178,2.853,0.0097195,0,0,1,9,238
-1.0551,3.0091,-3.178,2.853,0.0097195,0,0,1,9,239
-1.0551,2.0091,-1.178,3.853,0.0097195,0,0,1,9,240
-1.0551,-0.99092,-1.178,-3.147,0.0097195,0,0,1,9,241
1.9449,-0.99092,-1.178,-1.147,0.0097195,0,0,0,9,242
1.9449,-0.99092,1.822,1.853,0.0097195,0,0,0,9,243
-1.0551,1.0091,-1.178,0.85295,0.0097195,0,0,1,9,244
0.9449,-0.99092,1.822,-1.147,4.0097,1,0,0,9,245
-1.0551,-0.99092,-1.178,1.853,0.0097195,0,0,0,9,246
-1.0551,-0.99092,-4.178,1.853,0.0097195,0,0,0,9,247
-3.0551,-0.99092,-3.178,1.853,0.0097195,0,0,0,9,248
-1.0551,-0.99092,-1.178,-1.147,0.0097195,0,0,0,9,249
1.9449,-0.99092,-1.178,1.853,0.0097195,0,0,0,9,250
0.9449,4.0091,-4.178,2.853,0.0097195,0,0,1,10,76
0.9449,-1.9909,-4.178,-2.147,0.0097195,0,0,0,10,77
-2.0551,-0.99092,3.822,-1.147,0.0097195,0,0,1,10,78
-2.0551,-1.9909,3.822,0.85295,0.0097195,0,0,0,10,79
-2.0551,-1.9909,-2.178,0.85295,0.0097195,0,0,1,10,80
-2.0551,-1.9909,-2.178,-2.147,0.0097195,0,0,0,10,81
-2.0551,-1.9909,-2.178,-2.147,0.0097195,0,0,1,10,82
-2.0551,-2.9909,-2.178,-2.147,0.0097195,0,0,0,10,83
-3.0551,-0.99092,-3.178,-1.147,0.0097195,0,0,1,10,84
-3.0551,-2.9909,-2.178,-3.147,0.0097195,0,0,0,10,85
-3.0551,-1.9909,-3.178,-3.147,0.0097195,0,0,0,10,86
-1.0551,-1.9909,-1.178,-3.147,0.0097195,0,0,0,10,87
-2.0551,-0.99092,-2.178,-2.147,3.0097,1,0,0,10,88
-3.0551,-0.99092,-3.178,2.853,0.0097195,0,0,1,10,89
-3.0551,5.0091,-3.178,4.853,0.0097195,0,0,1,10,90
-3.0551,1.0091,-3.178,-2.147,0.0097195,0,0,1,10,91
-3.0551,3.0091,-3.178,2.853,0.0097195,0,0,1,10,92
0.9449,-2.9909,0.82202,-3.147,0.0097195,0,0,0,10,93
-3.0551,1.0091,-3.178,0.85295,-3.9903,1,0,1,10,94
-3.0551,1.0091,-3.178,0.85295,0.0097195,0,0,1,10,95
-3.0551,0.009081,-3.178,-4.147,0.0097195,0,0,0,10,96
-0.055101,0.009081,-0.17798,-4.147,0.0097195,0,0,0,10,97
-1.0551,0.009081,-3.178,-0.14705,0.0097195,0,0,1,10,98
-1.0551,0.009081,-1.178,-4.147,-3.9903,1,0,1,10,99
-1.0551,1.0091,-1.178,-4.147,0.0097195,0,0,1,10,100
-1.0551,-3.9909,-1.178,0.85295,0.0097195,0,0,0,10,101
1.9449,-3.9909,1.822,-4.147,0.0097195,0,0,0,10,102
2.9449,-3.9909,2.822,-4.147,0.0097195,0,0,0,10,103
2.9449,-3.9909,-3.178,-4.147,0.0097195,0,0,0,10,104
2.9449,-3.9909,2.822,-4.147,0.0097195,0,0,0,10,105
2.9449,-3.9909,2.822,0.85295,4.0097,1,0,1,10,106
2.9449,-2.9909,2.822,-3.147,0.0097195,0,0,0,10,107
-0.055101,-2.9909,-4.178,-4.147,0.0097195,0,0,0,10,108
-0.055101,-2.9909,-0.17798,-4.147,0.0097195,0,0,1,10,109
-0.055101,-2.9909,-0.17798,-3.147,0.0097195,0,0,0,10,110
0.9449,-2.9909,-0.17798,-3.147,0.0097195,0,0,0,10,111
1.9449,-2.9909,0.82202,-3.147,0.0097195,0,0,0,10,112
2.9449,-2.9909,1.822,-3.147,0.0097195,0,0,0,10,113
1.9449,-2.9909,1.822,-3.147,0.0097195,0,0,0,10,114
1.9449,-2.9909,2.822,-3.147,3.0097,1,0,1,10,115
1.9449,-1.9909,2.822,-2.147,0.0097195,0,0,0,10,116
3.9449,-1.9909,-3.178,-2.147,0.0097195,0,0,0,10,117
0.9449,-1.9909,0.82202,-3.147,0.0097195,0,0,0,10,118
0.9449,-1.9909,3.822,-2.147,4.0097,1,0,0,10,119
4.9449,-1.9909,-4.178,-3.147,0.0097195,0,0,0,10,120
4.9449,-1.9909,4.822,-2.147,2.0097,1,0,0,10,121
-2.0551,5.0091,-3.178,4.853,0.0097195,0,0,1,10,122
3.9449,-1.9909,3.822,-2.147,0.0097195,0,0,0,10,123
-2.0551,3.0091,-3.178,2.853,0.0097195,0,0,1,10,124
2.9449,-1.9909,-2.178,-2.147,-2.9903,1,0,0,10,125
2.9449,-1.9909,2.822,-2.147,0.0097195,0,0,0,10,126
3.9449,-1.9909,3.822,-3.147,0.0097195,0,0,0,10,127
4.9449,-1.9909,4.822,-3.147,0.0097195,0,0,0,10,128
-2.0551,5.0091,-3.178,2.853,0.0097195,0,0,1,10,129
-2.0551,5.0091,-3.178,4.853,0.0097195,0,0,1,10,130
3.9449,-1.9909,4.822,-3.147,0.0097195,0,0,0,10,131
-2.0551,4.0091,-3.178,3.853,-1.9903,1,0,1,10,132
-2.0551,4.0091,-3.178,3.853,0.0097195,0,0,1,10,133
-2.0551,4.0091,-3.178,3.853,0.0097195,0,0,1,10,134
2.9449,-1.9909,-2.178,-2.147,0.0097195,0,0,0,10,135
3.9449,-1.9909,3.822,-3.147,0.0097195,0,0,0,10,136
3.9449,-1.9909,2.822,-2.147,0.0097195,0,0,0,10,137
-2.0551,2.0091,-3.178,1.853,0.0097195,0,0,1,10,138
1.9449,-1.9909,3.822,-3.147,4.0097,1,0,0,10,139
-2.0551,2.0091,-3.178,-4.147,-2.9903,1,0,0,10,140
0.9449,2.0091,0.82202,-4.147,0.0097195,0,0,0,10,141
1.9449,1.0091,-3.178,0.85295,0.0097195,0,0,1,10,142
1.9449,-1.9909,-3.178,-2.147,0.0097195,0,0,1,10,143
1.9449,-2.9909,-3.178,-3.147,0.0097195,0,0,0,10,144
-3.0551,2.0091,-2.178,-4.147,-3.9903,1,0,1,10,145
3.9449,-2.9909,3.822,-3.147,0.0097195,0,0,0,10,146
-3.0551,4.0091,-2.178,3.853,0.0097195,0,0,1,10,147
-3.0551,4.0091,-2.178,3.853,0.0097195,0,0,1,10,148
-3.0551,1.0091,-2.178,0.85295,0.0097195,0,0,1,10,149
0.9449,-2.9909,-4.178,-2.147,-3.9903,1,0,0,10,150
-0.055101,-2.9909,-0.17798,-2.147,0.0097195,0,0,0,10,151
-3.0551,-0.99092,-2.178,3.853,0.0097195,0,0,0,10,152
-1.0551,-0.99092,-1.178,-1.147,0.0097195,0,0,0,10,153
0.9449,-0.99092,3.822,-3.147,0.0097195,0,0,0,10,154
0.9449,-0.99092,0.82202,-3.147,0.0097195,0,0,0,10,155
0.9449,-0.99092,0.82202,-3.147,-3.9903,1,0,0,10,156
0.9449,-0.99092,0.82202,-1.147,0.0097195,0,0,0,10,157
3.9449,-0.99092,3.822,-1.147,0.0097195,0,0,0,10,158
-1.0551,0.009081,-1.178,3.853,0.0097195,0,0,1,10,159
0.9449,-0.99092,-0.17798,-1.147,0.0097195,0,0,0,10,160
-1.0551,5.0091,-1.178,0.85295,0.0097195,0,0,1,10,161
2.9449,-0.99092,4.822,-1.147,0.0097195,0,0,0,10,162
2.9449,-0.99092,2.822,-3.147,-4.9903,1,0,0,10,163
4.9449,-0.99092,4.822,-3.147,0.0097195,0,0,0,10,164
2.9449,-0.99092,4.822,-1.147,0.0097195,0,0,0,10,165
-1.0551,0.009081,-1.178,2.853,0.0097195,0,0,1,10,166
-1.0551,-0.99092,-1.178,-1.147,0.0097195,0,0,0,10,167
-1.0551,-0.99092,-0.17798,-3.147,3.0097,1,0,1,10,168
-1.0551,-0.99092,-0.17798,2.853,0.0097195,0,0,0,10,169
-1.0551,-2.9909,2.822,-1.147,0.0097195,0,0,0,10,170
-1.0551,-2.9909,-1.178,-1.147,0.0097195,0,0,1,10,171
-3.0551,-0.99092,-3.178,-1.147,4.0097,1,0,0,10,172
-3.0551,-0.99092,-3.178,-1.147,0.0097195,0,0,1,10,173
-2.0551,-2.9909,-1.178,-4.147,0.0097195,0,0,1,10,174
-3.0551,-1.9909,-3.178,-2.147,0.0097195,0,0,0,10,175
-2.0551,-1.9909,-2.178,-1.147,0.0097195,0,0,1,10,176
-2.0551,-0.99092,-2.178,-2.147,0.0097195,0,0,0,10,177
-2.0551,-0.99092,-3.178,-2.147,0.0097195,0,0,0,10,178
-1.0551,-1.9909,-1.178,-3.147,-2.9903,1,0,0,10,179
-2.0551,4.0091,-3.178,-2.147,0.0097195,0,0,1,10,180
-2.0551,3.0091,-3.178,2.853,0.0097195,0,0,1,10,181
4.9449,-1.9909,3.822,-3.147,0.0097195,0,0,0,10,182
-2.0551,4.0091,-3.178,3.853,0.0097195,0,0,1,10,183
-2.0551,4.0091,-3.178,4.853,0.0097195,0,0,1,10,184
3.9449,-1.9909,3.822,-3.147,4.0097,1,0,0,10,185
2.9449,-1.9909,2.822,-3.147,0.0097195,0,0,0,10,186
-2.0551,0.009081,-3.178,-4.147,0.0097195,0,0,1,10,187
-3.0551,-1.9909,-0.17798,-3.147,0.0097195,0,0,0,10,188
-2.0551,-1.9909,-2.178,-3.147,0.0097195,0,0,1,10,189
-2.0551,-1.9909,-3.178,-3.147,-4.9903,1,0,1,10,190
-2.0551,-1.9909,4.822,-2.147,0.0097195,0,0,0,10,191
3.9449,-1.9909,-3.178,-2.147,0.0097195,0,0,0,10,192
3.9449,-1.9909,3.822,-2.147,0.0097195,0,0,0,10,193
2.9449,-1.9909,2.822,-2.147,0.0097195,0,0,0,10,194
1.9449,-1.9909,3.822,-2.147,0.0097195,0,0,0,10,195
-2.0551,2.0091,-2.178,1.853,0.0097195,0,0,1,10,196
3.9449,-1.9909,3.822,-2.147,0.0097195,0,0,0,10,197
3.9449,-1.9909,1.822,-2.147,-3.9903,1,0,0,10,198
-2.0551,1.0091,-2.178,3.853,0.0097195,0,0,1,10,199
-2.0551,0.009081,-2.178,-0.14705,0.0097195,0,0,1,10,200
4.9449,-1.9909,4.822,-2.147,0.0097195,0,0,0,10,201
4.9449,-1.9909,0.82202,-2.147,-2.9903,1,0,0,10,202
-2.0551,3.0091,-2.178,2.853,0.0097195,0,0,1,10,203
0.9449,-1.9909,0.82202,-2.147,0.0097195,0,0,0,10,204
-2.0551,-1.9909,2.822,-2.147,0.0097195,0,0,1,10,205
-2.0551,-1.9909,2.822,-2.147,-3.9903,1,0,1,10,206
3.9449,-1.9909,-4.178,-2.147,0.0097195,0,0,0,10,207
-2.0551,4.0091,2.822,3.853,0.0097195,0,0,1,10,208
3.9449,-1.9909,3.822,-2.147,0.0097195,0,0,0,10,209
2.9449,-1.9909,2.822,-2.147,0.0097195,0,0,0,10,210
-2.0551,4.0091,2.822,3.853,0.0097195,0,0,1,10,211
-2.0551,1.0091,2.822,3.853,0.0097195,0,0,1,10,212
-2.0551,2.0091,2.822,0.85295,0.0097195,0,0,1,10,213
-2.0551,2.0091,-2.178,1.853,-3.9903,1,0,0,10,214
2.9449,2.0091,2.822,1.853,0.0097195,0,0,0,10,215
1.9449,3.0091,-4.178,2.853,0.0097195,0,0,1,10,216
4.9449,2.0091,4.822,1.853,0.0097195,0,0,0,10,217
2.9449,2.0091,2.822,1.853,0.0097195,0,0,0,10,218
2.9449,2.0091,2.822,-4.147,-4.9903,1,0,0,10,219
1.9449,1.0091,-4.178,4.853,0.0097195,0,0,1,10,220
-3.0551,2.0091,-3.178,1.853,0.0097195,0,0,1,10,221
-3.0551,0.009081,-3.178,-0.14705,0.0097195,0,0,1,10,222
-0.055101,-2.9909,-4.178,-3.147,-4.9903,1,0,0,10,223
-3.0551,-0.99092,-3.178,4.853,0.0097195,0,0,0,10,224
-1.0551,-0.99092,0.82202,4.853,0.0097195,0,0,0,10,225
-1.0551,-0.99092,-1.178,-1.147,0.0097195,0,0,1,10,226
-1.0551,-1.9909,-1.178,4.853,0.0097195,0,0,1,10,227
-1.0551,-3.9909,-1.178,-4.147,0.0097195,0,0,0,10,228
-1.0551,-3.9909,-1.178,-2.147,1.0097,1,0,0,10,229
-1.0551,-3.9909,-1.178,-4.147,4.0097,1,0,1,10,230
-1.0551,-2.9909,-1.178,-3.147,0.0097195,0,0,1,10,231
-1.0551,-0.99092,-2.178,-1.147,0.0097195,0,0,1,10,232
-0.055101,-0.99092,-0.17798,-1.147,0.0097195,0,0,0,10,233
3.9449,-0.99092,-4.178,-2.147,0.0097195,0,0,0,10,234
-1.0551,4.0091,-2.178,3.853,0.0097195,0,0,1,10,235
3.9449,-0.99092,3.822,-1.147,0.0097195,0,0,0,10,236
0.9449,-0.99092,0.82202,-1.147,0.0097195,0,0,0,10,237
3.9449,-0.99092,3.822,-1.147,0.0097195,0,0,0,10,238
-1.0551,5.0091,-2.178,4.853,0.0097195,0,0,1,10,239
2.9449,-0.99092,3.822,-2.147,0.0097195,0,0,0,10,240
2.9449,-0.99092,2.822,-1.147,0.0097195,0,0,0,10,241
2.9449,-0.99092,2.822,-2.147,0.0097195,0,0,0,10,242
1.9449,-0.99092,2.822,-1.147,0.0097195,0,0,0,10,243
1.9449,-0.99092,1.822,-1.147,0.0097195,0,0,0,10,244
1.9449,-0.99092,1.822,-1.147,-2.9903,1,0,0,10,245
-1.0551,3.0091,-2.178,2.853,0.0097195,0,0,1,10,246
3.9449,-0.99092,2.822,-1.147,0.0097195,0,0,0,10,247
2.9449,-0.99092,2.822,-1.147,0.0097195,0,0,0,10,248
-1.0551,5.0091,-2.178,3.853,0.0097195,0,0,1,10,249
-1.0551,3.0091,-2.178,2.853,0.0097195,0,0,1,10,250
1.9449,-0.99092,1.822,-0.14705,0.0097195,0,0,0,11,76
-1.0551,5.0091,-1.178,4.853,0.0097195,0,0,1,11,77
-1.0551,3.0091,-1.178,2.853,0.0097195,0,0,1,11,78
-1.0551,4.0091,-1.178,3.853,0.0097195,0,0,1,11,79
4.9449,-0.99092,0.82202,-0.14705,0.0097195,0,0,0,11,80
4.9449,-0.99092,4.822,-1.147,0.0097195,0,0,0,11,81
2.9449,-0.99092,2.822,-0.14705,0.0097195,0,0,0,11,82
-1.0551,2.0091,-1.178,4.853,0.0097195,0,0,1,11,83
0.9449,-0.99092,0.82202,-0.14705,0.0097195,0,0,0,11,84
-0.055101,-0.99092,1.822,-0.14705,0.0097195,0,0,1,11,85
-2.0551,0.009081,-1.178,-0.14705,0.0097195,0,0,1,11,86
1.9449,-1.9909,1.822,-1.147,0.0097195,0,0,0,11,87
-2.0551,2.0091,-1.178,1.853,-1.9903,1,0,1,11,88
-2.0551,-1.9909,-2.178,-2.147,0.0097195,0,0,1,11,89
-2.0551,-1.9909,-2.178,-2.147,0.0097195,0,0,1,11,90
-3.0551,-1.9909,-1.178,-2.147,0.0097195,0,0,1,11,91
-3.0551,0.009081,-1.178,-0.14705,0.0097195,0,0,1,11,92
-1.0551,-2.9909,-1.178,-3.147,0.0097195,0,0,0,11,93
-1.0551,-2.9909,-2.178,-3.147,4.0097,1,0,1,11,94
3.9449,-0.99092,-1.178,-4.147,0.0097195,0,0,0,11,95
-1.0551,2.0091,-2.178,1.853,0.0097195,0,0,1,11,96
-1.0551,5.0091,-2.178,4.853,0.0097195,0,0,1,11,97
-1.0551,3.0091,-2.178,3.853,0.0097195,0,0,1,11,98
2.9449,-0.99092,2.822,-4.147,3.0097,1,0,0,11,99
-1.0551,1.0091,-4.178,-3.147,0.0097195,0,0,1,11,100
-1.0551,0.009081,-2.178,-0.14705,0.0097195,0,0,1,11,101
-1.0551,1.0091,-2.178,0.85295,0.0097195,0,0,1,11,102
1.9449,-0.99092,1.822,-4.147,0.0097195,0,0,0,11,103
-0.055101,-0.99092,-0.17798,-4.147,0.0097195,0,0,0,11,104
-1.0551,0.009081,-2.178,-0.14705,0.0097195,0,0,1,11,105
-1.0551,0.009081,-2.178,0.85295,3.0097,1,0,1,11,106
-1.0551,-2.9909,-2.178,2.853,0.0097195,0,0,0,11,107
1.9449,-2.9909,1.822,2.853,0.0097195,0,0,0,11,108
1.9449,-2.9909,1.822,-3.147,0.0097195,0,0,0,11,109
-0.055101,-2.9909,-0.17798,-3.147,0.0097195,0,0,0,11,110
-1.0551,-2.9909,-1.178,2.853,0.0097195,0,0,0,11,111
-2.0551,-2.9909,-2.178,2.853,0.0097195,0,0,1,11,112
-2.0551,-2.9909,-4.178,-3.147,0.0097195,0,0,1,11,113
-2.0551,-2.9909,-2.178,-3.147,0.0097195,0,0,0,11,114
-2.0551,-2.9909,-4.178,-3.147,-2.9903,1,0,0,11,115
-3.0551,-3.9909,-3.178,-4.147,0.0097195,0,0,0,11,116
-4.0551,-2.9909,2.822,-3.147,0.0097195,0,0,1,11,117
-4.0551,0.009081,-4.178,-3.147,0.0097195,0,0,1,11,118
-0.055101,-3.9909,-0.17798,-4.147,3.0097,1,0,0,11,119
-4.0551,-0.99092,-4.178,-3.147,0.0097195,0,0,0,11,120
3.9449,-0.99092,2.822,-1.147,0.0097195,0,0,0,11,121
1.9449,-0.99092,3.822,-3.147,0.0097195,0,0,0,11,122
-2.0551,-0.99092,-2.178,-3.147,0.0097195,0,0,0,11,123
-3.0551,-0.99092,-3.178,-3.147,0.0097195,0,0,1,11,124
-1.0551,-2.9909,-1.178,-3.147,3.0097,1,0,0,11,125
1.9449,-2.9909,1.822,-3.147,0.0097195,0,0,0,11,126
-3.0551,3.0091,-3.178,-3.147,0.0097195,0,0,1,11,127
-3.0551,4.0091,1.822,2.853,0.0097195,0,0,1,11,128
-3.0551,2.0091,1.822,3.853,0.0097195,0,0,1,11,129
3.9449,-2.9909,1.822,-3.147,0.0097195,0,0,0,11,130
2.9449,-2.9909,2.822,-3.147,0.0097195,0,0,0,11,131
-3.0551,3.0091,1.822,3.853,3.0097,1,0,1,11,132
2.9449,-2.9909,2.822,-3.147,1.0097,1,0,0,11,133
-3.0551,4.0091,1.822,3.853,0.0097195,0,0,1,11,134
-3.0551,2.0091,1.822,1.853,0.0097195,0,0,1,11,135
-3.0551,1.0091,-3.178,-1.147,0.0097195,0,0,1,11,136
-3.0551,1.0091,1.822,0.85295,0.0097195,0,0,1,11,137
-3.0551,1.0091,-3.178,0.85295,3.0097,1,0,1,11,138
-3.0551,1.0091,1.822,2.853,3.0097,1,0,1,11,139
-3.0551,0.009081,-3.178,2.853,0.0097195,0,0,1,11,140
0.9449,-2.9909,-0.17798,-3.147,0.0097195,0,0,0,11,141
2.9449,-2.9909,2.822,-3.147,0.0097195,0,0,0,11,142
3.9449,-2.9909,3.822,-3.147,0.0097195,0,0,0,11,143
-3.0551,4.0091,1.822,0.85295,0.0097195,0,0,1,11,144
3.9449,-2.9909,3.822,-3.147,-2.9903,1,0,0,11,145
-3.0551,5.0091,-3.178,2.853,0.0097195,0,0,1,11,146
4.9449,-2.9909,4.822,-3.147,0.0097195,0,0,0,11,147
-3.0551,4.0091,-3.178,4.853,0.0097195,0,0,1,11,148
-3.0551,3.0091,-3.178,2.853,0.0097195,0,0,1,11,149
-3.0551,3.0091,1.822,3.853,-3.9903,1,0,1,11,150
-3.0551,4.0091,1.822,-4.147,0.0097195,0,0,1,11,151
-3.0551,4.0091,-3.178,3.853,0.0097195,0,0,1,11,152
2.9449,-2.9909,3.822,-3.147,0.0097195,0,0,0,11,153
3.9449,-2.9909,3.822,-3.147,0.0097195,0,0,0,11,154
3.9449,-2.9909,3.822,-3.147,0.0097195,0,0,0,11,155
-3.0551,4.0091,1.822,2.853,4.0097,1,0,1,11,156
3.9449,-2.9909,3.822,-3.147,0.0097195,0,0,0,11,157
-3.0551,3.0091,1.822,3.853,0.0097195,0,0,1,11,158
-3.0551,-0.99092,-3.178,-1.147,0.0097195,0,0,1,11,159
0.9449,-2.9909,2.822,-3.147,0.0097195,0,0,0,11,160
-3.0551,4.0091,1.822,3.853,0.0097195,0,0,1,11,161
-3.0551,4.0091,-3.178,0.85295,0.0097195,0,0,1,11,162
3.9449,-2.9909,3.822,-3.147,-4.9903,1,0,0,11,163
3.9449,-2.9909,3.822,-3.147,0.0097195,0,0,0,11,164
-3.0551,4.0091,-3.178,4.853,0.0097195,0,0,1,11,165
-3.0551,1.0091,-3.178,0.85295,0.0097195,0,0,1,11,166
-3.0551,5.0091,-3.178,4.853,0.0097195,0,0,1,11,167
-3.0551,5.0091,1.822,3.853,-2.9903,1,0,1,11,168
-3.0551,5.0091,1.822,-3.147,-3.9903,1,0,1,11,169
-0.055101,-2.9909,-4.178,-3.147,0.0097195,0,0,0,11,170
0.9449,-2.9909,0.82202,-3.147,0.0097195,0,0,0,11,171
-3.0551,1.0091,1.822,-0.14705,-3.9903,1,0,1,11,172
-3.0551,-0.99092,-3.178,-1.147,0.0097195,0,0,0,11,173
3.9449,-0.99092,3.822,-1.147,0.0097195,0,0,0,11,174
-1.0551,4.0091,-4.178,3.853,0.0097195,0,0,1,11,175
4.9449,-0.99092,1.822,-4.147,0.0097195,0,0,0,11,176
1.9449,-0.99092,1.822,-1.147,0.0097195,0,0,0,11,177
2.9449,-0.99092,4.822,-1.147,0.0097195,0,0,0,11,178
2.9449,-0.99092,2.822,-1.147,4.0097,1,0,0,11,179
4.9449,-0.99092,-4.178,-1.147,0.0097195,0,0,0,11,180
-1.0551,3.0091,-4.178,2.853,0.0097195,0,0,1,11,181
4.9449,-0.99092,4.822,-4.147,0.0097195,0,0,0,11,182
0.9449,-0.99092,4.822,-1.147,0.0097195,0,0,0,11,183
0.9449,-0.99092,0.82202,-1.147,0.0097195,0,0,0,11,184
0.9449,-0.99092,0.82202,-4.147,4.0097,1,0,0,11,185
1.9449,-0.99092,1.822,-1.147,0.0097195,0,0,0,11,186
-0.055101,-0.99092,-0.17798,-4.147,0.0097195,0,0,0,11,187
0.9449,-0.99092,-4.178,-1.147,0.0097195,0,0,0,11,188
-1.0551,0.009081,-4.178,-0.14705,0.0097195,0,0,1,11,189
-0.055101,-0.99092,0.82202,-1.147,4.0097,1,0,0,11,190
-1.0551,0.009081,-4.178,-4.147,0.0097195,0,0,1,11,191
0.9449,-0.99092,-0.17798,-4.147,0.0097195,0,0,0,11,192
0.9449,-0.99092,0.82202,-1.147,4.0097,1,0,0,11,193
-3.0551,-0.99092,-4.178,-4.147,0.0097195,0,0,1,11,194
-3.0551,4.0091,-3.178,-1.147,0.0097195,0,0,1,11,195
-3.0551,4.0091,-3.178,3.853,0.0097195,0,0,1,11,196
-3.0551,5.0091,-3.178,4.853,0.0097195,0,0,1,11,197
4.9449,-2.9909,3.822,-3.147,4.0097,1,0,0,11,198
-3.0551,0.009081,-3.178,-4.147,0.0097195,0,0,1,11,199
-3.0551,1.0091,-4.178,-0.14705,0.0097195,0,0,1,11,200
-3.0551,-0.99092,-4.178,-1.147,0.0097195,0,0,1,11,201
-3.0551,-0.99092,-4.178,0.85295,-3.9903,1,0,1,11,202
-3.0551,-2.9909,-3.178,-3.147,0.0097195,0,0,0,11,203
-4.0551,-2.9909,-4.178,-3.147,0.0097195,0,0,0,11,204
-3.0551,-1.9909,-4.178,-4.147,0.0097195,0,0,0,11,205
-2.0551,-2.9909,-2.178,-3.147,-2.9903,1,0,0,11,206
-3.0551,-2.9909,-3.178,-4.147,0.0097195,0,0,0,11,207
-3.0551,-2.9909,-3.178,2.853,0.0097195,0,0,1,11,208
-3.0551,-2.9909,-3.178,-4.147,0.0097195,0,0,0,11,209
-3.0551,-1.9909,-3.178,-2.147,0.0097195,0,0,0,11,210
-2.0551,-1.9909,-2.178,-4.147,0.0097195,0,0,1,11,211
-2.0551,-2.9909,-2.178,-3.147,0.0097195,0,0,0,11,212
-1.0551,-2.9909,-1.178,-3.147,0.0097195,0,0,0,11,213
-3.0551,-0.99092,-3.178,-3.147,4.0097,1,0,1,11,214
-3.0551,3.0091,-2.178,3.853,0.0097195,0,0,1,11,215
-3.0551,4.0091,-2.178,2.853,0.0097195,0,0,1,11,216
-3.0551,3.0091,-2.178,2.853,0.0097195,0,0,1,11,217
-3.0551,5.0091,-3.178,4.853,0.0097195,0,0,1,11,218
4.9449,-2.9909,3.822,-3.147,-4.9903,1,0,0,11,219
-3.0551,2.0091,-2.178,1.853,0.0097195,0,0,1,11,220
-3.0551,0.009081,-3.178,4.853,0.0097195,0,0,1,11,221
-3.0551,-0.99092,-2.178,-0.14705,0.0097195,0,0,1,11,222
-3.0551,-0.99092,-3.178,-1.147,5.0097,1,0,1,11,223
-3.0551,-1.9909,-3.178,-2.147,0.0097195,0,0,1,11,224
-2.0551,-2.9909,4.822,-3.147,0.0097195,0,0,1,11,225
3.9449,-1.9909,3.822,-2.147,0.0097195,0,0,0,11,226
-2.0551,2.0091,4.822,1.853,0.0097195,0,0,1,11,227
-1.0551,-1.9909,-1.178,-2.147,0.0097195,0,0,0,11,228
-2.0551,-0.99092,4.822,-1.147,0.0097195,0,0,0,11,229
-1.0551,-1.9909,-1.178,-2.147,-3.9903,1,0,1,11,230
-1.0551,3.0091,-1.178,2.853,0.0097195,0,0,1,11,231
-1.0551,4.0091,-1.178,3.853,0.0097195,0,0,1,11,232
4.9449,-0.99092,-4.178,-1.147,0.0097195,0,0,0,11,233
1.9449,-0.99092,1.822,-1.147,0.0097195,0,0,0,11,234
1.9449,-0.99092,1.822,-1.147,0.0097195,0,0,1,11,235
2.9449,2.0091,2.822,4.853,0.0097195,0,0,0,11,236
-0.055101,2.0091,-0.17798,4.853,0.0097195,0,0,0,11,237
0.9449,2.0091,-2.178,4.853,0.0097195,0,0,0,11,238
1.9449,1.0091,1.822,0.85295,0.0097195,0,0,1,11,239
0.9449,2.0091,0.82202,1.853,0.0097195,0,0,0,11,240
4.9449,2.0091,0.82202,4.853,0.0097195,0,0,0,11,241
4.9449,2.0091,4.822,4.853,0.0097195,0,0,0,11,242
2.9449,2.0091,4.822,4.853,0.0097195,0,0,0,11,243
-0.055101,2.0091,-0.17798,1.853,0.0097195,0,0,0,11,244
1.9449,0.009081,1.822,2.853,5.0097,1,0,1,11,245
1.9449,2.0091,4.822,4.853,0.0097195,0,0,0,11,246
1.9449,4.0091,1.822,1.853,0.0097195,0,0,1,11,247
3.9449,2.0091,3.822,1.853,0.0097195,0,0,0,11,248
2.9449,2.0091,2.822,4.853,0.0097195,0,0,0,11,249
1.9449,1.0091,1.822,3.853,0.0097195,0,0,1,11,250
-4.0551,3.0091,-3.178,2.853,0.0097195,0,0,1,12,76
-0.055101,-3.9909,-0.17798,-4.147,0.0097195,0,0,0,12,77
-4.0551,2.0091,-4.178,3.853,0.0097195,0,0,1,12,78
0.9449,-3.9909,1.822,-4.147,0.0097195,0,0,0,12,79
1.9449,-3.9909,1.822,-4.147,0.0097195,0,0,0,12,80
-4.0551,-0.99092,-4.178,0.85295,0.0097195,0,0,1,12,81
-4.0551,3.0091,-4.178,2.853,0.0097195,0,0,1,12,82
-4.0551,4.0091,-3.178,3.853,0.0097195,0,0,1,12,83
3.9449,-3.9909,-1.178,-4.147,0.0097195,0,0,0,12,84
-4.0551,5.0091,-3.178,4.853,0.0097195,0,0,1,12,85
3.9449,-3.9909,3.822,-4.147,0.0097195,0,0,0,12,86
-4.0551,4.0091,-3.178,3.853,0.0097195,0,0,1,12,87
-4.0551,4.0091,-4.178,3.853,-1.9903,1,0,1,12,88
-4.0551,1.0091,-3.178,-2.147,0.0097195,0,0,1,12,89
-0.055101,-3.9909,-0.17798,-4.147,0.0097195,0,0,0,12,90
-4.0551,1.0091,-3.178,0.85295,0.0097195,0,0,1,12,91
-4.0551,-2.9909,-3.178,0.85295,0.0097195,0,0,1,12,92
-4.0551,-3.9909,-3.178,-4.147,0.0097195,0,0,0,12,93
-4.0551,-3.9909,-4.178,-4.147,4.0097,1,0,0,12,94
2.9449,-3.9909,-4.178,-3.147,0.0097195,0,0,0,12,95
1.9449,-3.9909,2.822,-4.147,0.0097195,0,0,0,12,96
0.9449,-3.9909,1.822,-4.147,0.0097195,0,0,0,12,97
3.9449,-3.9909,3.822,-3.147,0.0097195,0,0,0,12,98
3.9449,-3.9909,0.82202,-4.147,3.0097,1,0,0,12,99
-4.0551,1.0091,-3.178,0.85295,0.0097195,0,0,1,12,100
-3.0551,-3.9909,-3.178,-4.147,0.0097195,0,0,0,12,101
-2.0551,-3.9909,-3.178,-3.147,0.0097195,0,0,1,12,102
3.9449,-1.9909,3.822,-2.147,0.0097195,0,0,0,12,103
3.9449,-1.9909,3.822,-2.147,0.0097195,0,0,0,12,104
-2.0551,4.0091,-2.178,-4.147,0.0097195,0,0,1,12,105
-2.0551,4.0091,-3.178,3.853,-1.9903,1,0,1,12,106
-2.0551,-1.9909,-3.178,-2.147,0.0097195,0,0,1,12,107
-2.0551,-0.99092,-2.178,-2.147,0.0097195,0,0,0,12,108
-2.0551,-0.99092,-3.178,-2.147,0.0097195,0,0,0,12,109
-3.0551,-0.99092,-3.178,-1.147,0.0097195,0,0,1,12,110
-3.0551,-2.9909,-3.178,-3.147,0.0097195,0,0,0,12,111
-3.0551,-2.9909,-2.178,-3.147,0.0097195,0,0,0,12,112
-3.0551,0.009081,-3.178,-2.147,0.0097195,0,0,1,12,113
-1.0551,-2.9909,-0.17798,-2.147,0.0097195,0,0,1,12,114
-3.0551,-0.99092,-3.178,-1.147,4.0097,1,0,0,12,115
-1.0551,1.0091,-1.178,-4.147,0.0097195,0,0,1,12,116
-1.0551,3.0091,-1.178,2.853,0.0097195,0,0,1,12,117
-1.0551,2.0091,-1.178,1.853,0.0097195,0,0,1,12,118
1.9449,-0.99092,0.82202,-1.147,4.0097,1,0,0,12,119
-0.055101,-0.99092,-0.17798,-1.147,0.0097195,0,0,0,12,120
-1.0551,0.009081,-0.17798,-4.147,0.0097195,0,0,1,12,121
