MB_X,MB_Y,MF_X,MF_Y,MFonMB,Crits,Crits_incog,Choice,Subj,Round
-1.9844,4.0261,-0.16481,3.8667,-0.0065185,0,0,1,1,76
-1.9844,0.026113,-2.1648,-0.1333,-0.0065185,0,0,1,1,77
-1.9844,-0.97389,-2.1648,-1.1333,-0.0065185,0,0,0,1,78
4.0156,-0.97389,-0.16481,4.8667,-0.0065185,0,0,0,1,79
3.0156,-0.97389,3.8352,-1.1333,-0.0065185,0,0,0,1,80
3.0156,-0.97389,2.8352,-1.1333,-0.0065185,0,0,0,1,81
-0.98445,3.0261,4.8352,2.8667,-0.0065185,0,0,1,1,82
4.0156,-0.97389,3.8352,-1.1333,-0.0065185,0,0,0,1,83
2.0156,-0.97389,1.8352,-1.1333,-0.0065185,0,0,0,1,84
-0.98445,3.0261,4.8352,2.8667,-0.0065185,0,0,1,1,85
1.0156,-0.97389,0.83519,-1.1333,-0.0065185,0,0,0,1,86
-0.98445,-1.9739,4.8352,-2.1333,-0.0065185,0,0,0,1,87
-1.9844,-0.97389,2.8352,-3.1333,-0.0065185,0,0,1,1,89
4.0156,-1.9739,3.8352,-2.1333,-0.0065185,0,0,0,1,90
-1.9844,2.0261,2.8352,1.8667,-0.0065185,0,0,1,1,91
-1.9844,1.0261,2.8352,0.8667,-0.0065185,0,0,0,1,92
1.0156,2.0261,0.83519,-2.1333,-0.0065185,0,0,1,1,93
2.0156,1.0261,1.8352,-1.1333,-5.0065,1,0,1,1,94
2.0156,-3.9739,1.8352,-4.1333,-0.0065185,0,0,0,1,95
3.0156,-3.9739,4.8352,-4.1333,-0.0065185,0,0,0,1,96
3.0156,-3.9739,2.8352,-4.1333,-0.0065185,0,0,0,1,97
3.0156,-3.9739,2.8352,-4.1333,-1.0065,1,0,1,1,98
-3.9844,3.0261,0.83519,0.8667,3.9935,1,0,0,1,99
3.0156,-3.9739,0.83519,-4.1333,-0.0065185,0,0,0,1,100
4.0156,-3.9739,3.8352,-4.1333,-0.0065185,0,0,0,1,101
-3.9844,4.0261,-4.1648,3.8667,-0.0065185,0,0,1,1,102
4.0156,-3.9739,3.8352,-4.1333,-0.0065185,0,0,0,1,103
-0.98445,-3.9739,-1.1648,-4.1333,-0.0065185,0,0,1,1,104
3.0156,-0.97389,-4.1648,-1.1333,-0.0065185,0,0,0,1,105
-0.98445,3.0261,2.8352,2.8667,-3.0065,1,0,1,1,106
-0.98445,3.0261,2.8352,2.8667,-0.0065185,0,0,1,1,107
-0.98445,5.0261,2.8352,4.8667,-0.0065185,0,0,1,1,108
-0.98445,1.0261,-1.1648,0.8667,-0.0065185,0,0,1,1,109
1.0156,-0.97389,-3.1648,-1.1333,-0.0065185,0,0,0,1,110
1.0156,-0.97389,0.83519,-1.1333,-0.0065185,0,0,0,1,111
-0.98445,2.0261,2.8352,0.8667,-0.0065185,0,0,1,1,112
2.0156,-0.97389,1.8352,-1.1333,-0.0065185,0,0,0,1,113
-1.9844,-0.97389,-2.1648,-1.1333,-0.0065185,0,0,1,1,114
-0.98445,-1.9739,2.8352,1.8667,3.9935,1,0,1,1,115
-0.98445,-1.9739,-4.1648,-2.1333,-0.0065185,0,0,0,1,116
-2.9844,-1.9739,2.8352,-2.1333,-0.0065185,0,0,1,1,117
-2.9844,0.026113,2.8352,-2.1333,-0.0065185,0,0,1,1,118
0.01555,-2.9739,-0.16481,-3.1333,-5.0065,1,0,0,1,119
-2.9844,1.0261,2.8352,4.8667,-0.0065185,0,0,1,1,120
-2.9844,1.0261,-3.1648,0.8667,-0.0065185,0,0,1,1,121
2.0156,-2.9739,0.83519,-3.1333,-0.0065185,0,0,0,1,122
2.0156,-2.9739,1.8352,-3.1333,-0.0065185,0,0,0,1,123
-2.9844,2.0261,-3.1648,1.8667,-0.0065185,0,0,1,1,124
-2.9844,2.0261,2.8352,1.8667,-3.0065,1,0,1,1,125
3.0156,-2.9739,2.8352,-3.1333,-0.0065185,0,0,0,1,126
-2.9844,2.0261,-3.1648,-3.1333,-0.0065185,0,0,1,1,127
2.0156,-2.9739,1.8352,-3.1333,-0.0065185,0,0,0,1,128
3.0156,-2.9739,2.8352,-3.1333,-0.0065185,0,0,0,1,129
-2.9844,5.0261,2.8352,4.8667,-0.0065185,0,0,1,1,130
4.0156,-2.9739,3.8352,-3.1333,-0.0065185,0,0,0,1,131
-2.9844,4.0261,2.8352,1.8667,3.9935,1,0,1,1,132
-2.9844,2.0261,2.8352,1.8667,-0.0065185,0,0,1,1,133
-0.98445,-2.9739,3.8352,-3.1333,-0.0065185,0,0,1,1,134
1.0156,-0.97389,2.8352,3.8667,-0.0065185,0,0,0,1,135
-0.98445,0.026113,3.8352,0.8667,-0.0065185,0,0,1,1,136
0.01555,-0.97389,-0.16481,-1.1333,-1.0065,1,0,0,1,137
0.01555,-0.97389,0.83519,-1.1333,-0.0065185,0,0,0,1,138
0.01555,-0.97389,-0.16481,3.8667,-5.0065,1,0,0,1,139
-1.9844,-0.97389,-2.1648,-1.1333,-0.0065185,0,0,0,1,140
-1.9844,-0.97389,-2.1648,3.8667,-0.0065185,0,0,1,1,141
-1.9844,1.0261,-2.1648,0.8667,-0.0065185,0,0,1,1,142
-0.98445,-1.9739,-1.1648,4.8667,-0.0065185,0,0,0,1,143
-1.9844,-2.9739,4.8352,-1.1333,-0.0065185,0,0,0,1,144
-1.9844,-2.9739,-2.1648,-3.1333,-4.0065,1,0,0,1,145
-3.9844,-2.9739,-4.1648,-3.1333,-0.0065185,0,0,0,1,146
-2.9844,-2.9739,3.8352,-1.1333,-0.0065185,0,0,1,1,147
-2.9844,-0.97389,-3.1648,-3.1333,-0.0065185,0,0,1,1,148
-2.9844,-1.9739,3.8352,-1.1333,-0.0065185,0,0,0,1,149
-2.9844,-1.9739,-3.1648,-1.1333,-5.0065,1,0,0,1,150
0.01555,-1.9739,-0.16481,-2.1333,-0.0065185,0,0,0,1,151
2.0156,-1.9739,1.8352,-1.1333,-0.0065185,0,0,0,1,152
4.0156,-1.9739,3.8352,-2.1333,-0.0065185,0,0,0,1,153
4.0156,-1.9739,-2.1648,-2.1333,-0.0065185,0,0,1,1,154
4.0156,-3.9739,4.8352,-1.1333,-0.0065185,0,0,0,1,155
4.0156,-3.9739,-2.1648,-4.1333,-3.0065,1,0,0,1,156
3.0156,-3.9739,2.8352,-1.1333,-0.0065185,0,0,0,1,157
-3.9844,3.0261,-4.1648,2.8667,-0.0065185,0,0,1,1,158
-3.9844,0.026113,-4.1648,-0.1333,-0.0065185,0,0,1,1,159
2.0156,-3.9739,2.8352,-1.1333,-0.0065185,0,0,0,1,160
-3.9844,0.026113,-4.1648,1.8667,-0.0065185,0,0,1,1,161
1.0156,-3.9739,-0.16481,-1.1333,-0.0065185,0,0,0,1,162
-3.9844,1.0261,-4.1648,0.8667,-2.0065,1,0,1,1,163
1.0156,-3.9739,-2.1648,-4.1333,-0.0065185,0,0,0,1,164
0.01555,-3.9739,-0.16481,-4.1333,-0.0065185,0,0,0,1,165
-3.9844,-3.9739,-4.1648,-4.1333,-0.0065185,0,0,1,1,166
-3.9844,-0.97389,-4.1648,-1.1333,-0.0065185,0,0,1,1,167
-0.98445,-3.9739,-1.1648,0.8667,1.9935,1,0,1,1,168
0.01555,-0.97389,-4.1648,-2.1333,-0.0065185,0,0,0,1,169
0.01555,-0.97389,-0.16481,-2.1333,-0.0065185,0,0,0,1,170
2.0156,-0.97389,1.8352,-2.1333,-0.0065185,0,0,0,1,171
2.0156,-0.97389,-0.16481,-2.1333,3.9935,1,0,0,1,172
3.0156,-0.97389,-4.1648,-2.1333,-0.0065185,0,0,0,1,173
-0.98445,5.0261,-1.1648,4.8667,-0.0065185,0,0,1,1,174
5.0156,-0.97389,4.8352,-2.1333,-0.0065185,0,0,0,1,175
1.0156,-0.97389,2.8352,-2.1333,-0.0065185,0,0,0,1,176
0.01555,-0.97389,-0.16481,-1.1333,-0.0065185,0,0,0,1,177
0.01555,-0.97389,0.83519,-2.1333,-1.0065,1,0,0,1,178
0.01555,-0.97389,0.83519,-1.1333,-5.0065,1,0,0,1,179
-0.98445,3.0261,-1.1648,4.8667,-0.0065185,0,0,1,1,180
3.0156,-0.97389,2.8352,-2.1333,-0.0065185,0,0,0,1,181
-0.98445,3.0261,-1.1648,2.8667,-0.0065185,0,0,1,1,182
-0.98445,2.0261,-1.1648,1.8667,-0.0065185,0,0,1,1,183
-0.98445,2.0261,-1.1648,1.8667,-0.0065185,0,0,1,1,184
2.0156,-0.97389,2.8352,-1.1333,-4.0065,1,0,0,1,185
-2.9844,-0.97389,-3.1648,-2.1333,-0.0065185,0,0,0,1,186
-0.98445,-0.97389,-1.1648,-1.1333,-0.0065185,0,0,1,1,187
-0.98445,3.0261,-1.1648,2.8667,-0.0065185,0,0,1,1,188
-0.98445,-0.97389,-1.1648,-2.1333,-0.0065185,0,0,1,1,189
-0.98445,-0.97389,-1.1648,3.8667,-5.0065,1,0,0,1,190
1.0156,-0.97389,0.83519,3.8667,-0.0065185,0,0,0,1,191
-0.98445,1.0261,-1.1648,0.8667,-0.0065185,0,0,1,1,192
-0.98445,0.026113,3.8352,4.8667,-0.0065185,0,0,1,1,193
-0.98445,0.026113,-1.1648,-0.1333,2.9935,1,0,1,1,194
-0.98445,-3.9739,-1.1648,-4.1333,-0.0065185,0,0,0,1,195
-0.98445,-3.9739,3.8352,-4.1333,-0.0065185,0,0,0,1,196
-3.9844,-2.9739,-4.1648,3.8667,-0.0065185,0,0,1,1,197
-2.9844,-3.9739,-3.1648,2.8667,-3.0065,1,0,0,1,198
-2.9844,-3.9739,2.8352,2.8667,-0.0065185,0,0,0,1,199
-2.9844,-3.9739,-3.1648,-4.1333,-0.0065185,0,0,1,1,200
1.0156,-2.9739,0.83519,-3.1333,-0.0065185,0,0,0,1,201
-2.9844,1.0261,-3.1648,2.8667,4.9935,1,0,1,1,202
3.0156,-2.9739,4.8352,-3.1333,-0.0065185,0,0,0,1,203
-2.9844,5.0261,-3.1648,2.8667,-0.0065185,0,0,1,1,204
-2.9844,5.0261,-3.1648,4.8667,-0.0065185,0,0,1,1,205
-2.9844,5.0261,-3.1648,4.8667,4.9935,1,0,1,1,206
5.0156,-2.9739,4.8352,-3.1333,-0.0065185,0,0,0,1,207
-2.9844,2.0261,-3.1648,4.8667,-0.0065185,0,0,1,1,208
-2.9844,3.0261,-3.1648,2.8667,-0.0065185,0,0,1,1,209
-2.9844,2.0261,-3.1648,1.8667,-0.0065185,0,0,1,1,210
-2.9844,1.0261,-3.1648,1.8667,-0.0065185,0,0,1,1,211
-2.9844,4.0261,-3.1648,0.8667,-0.0065185,0,0,1,1,212
5.0156,-2.9739,4.8352,-3.1333,-0.0065185,0,0,0,1,213
-2.9844,5.0261,-3.1648,3.8667,3.9935,1,0,1,1,214
2.0156,-2.9739,3.8352,-3.1333,-0.0065185,0,0,0,1,215
2.0156,-2.9739,1.8352,-3.1333,-0.0065185,0,0,0,1,216
-2.9844,3.0261,-3.1648,1.8667,-0.0065185,0,0,1,1,217
3.0156,-2.9739,2.8352,-3.1333,-0.0065185,0,0,0,1,218
-2.9844,3.0261,-3.1648,2.8667,4.9935,1,0,1,1,219
4.0156,-2.9739,4.8352,-3.1333,-0.0065185,0,0,0,1,220
-2.9844,4.0261,-3.1648,3.8667,-0.0065185,0,0,1,1,221
2.0156,-2.9739,1.8352,-3.1333,-0.0065185,0,0,0,1,222
-2.9844,2.0261,-3.1648,3.8667,4.9935,1,0,1,1,223
-2.9844,5.0261,-3.1648,4.8667,-0.0065185,0,0,1,1,224
5.0156,-2.9739,4.8352,-3.1333,-0.0065185,0,0,0,1,225
-2.9844,2.0261,-3.1648,4.8667,-0.0065185,0,0,1,1,226
-2.9844,0.026113,-3.1648,-0.1333,-0.0065185,0,0,1,1,227
1.0156,-2.9739,1.8352,-3.1333,-0.0065185,0,0,0,1,228
0.01555,-2.9739,-0.16481,-3.1333,-0.0065185,0,0,1,1,229
-2.9844,0.026113,-3.1648,-0.1333,-5.0065,1,0,0,1,230
0.01555,0.026113,-0.16481,0.8667,-0.0065185,0,0,0,1,231
0.01555,0.026113,-0.16481,0.8667,-0.0065185,0,0,0,1,232
0.01555,-2.9739,-0.16481,4.8667,-0.0065185,0,0,0,1,233
-2.9844,-3.9739,-3.1648,0.8667,-0.0065185,0,0,0,1,234
-3.9844,-0.97389,-4.1648,4.8667,-0.0065185,0,0,1,1,235
0.01555,-3.9739,-1.1648,-4.1333,-0.0065185,0,0,0,1,236
-2.9844,-3.9739,-0.16481,0.8667,-0.0065185,0,0,1,1,237
-2.9844,-2.9739,-3.1648,-4.1333,-0.0065185,0,0,0,1,238
-2.9844,-1.9739,-4.1648,-0.1333,-0.0065185,0,0,1,1,239
-2.9844,-2.9739,-2.1648,-4.1333,-0.0065185,0,0,1,1,240
2.0156,-2.9739,1.8352,-3.1333,-0.0065185,0,0,0,1,241
2.0156,-2.9739,1.8352,-3.1333,-0.0065185,0,0,0,1,242
-2.9844,2.0261,-2.1648,-3.1333,-0.0065185,0,0,1,1,243
-2.9844,1.0261,-2.1648,0.8667,-0.0065185,0,0,1,1,244
-2.9844,1.0261,-2.1648,1.8667,-4.0065,1,0,1,1,245
-2.9844,2.0261,-3.1648,-4.1333,-0.0065185,0,0,1,1,246
-2.9844,-0.97389,-2.1648,-1.1333,-0.0065185,0,0,1,1,247
1.0156,-2.9739,1.8352,-3.1333,-0.0065185,0,0,0,1,248
3.0156,-2.9739,2.8352,-3.1333,-0.0065185,0,0,0,1,249
4.0156,-2.9739,3.8352,-3.1333,-0.0065185,0,0,0,1,250
-1.9844,2.0261,-2.1648,4.8667,-0.0065185,0,0,1,2,76
-1.9844,-0.97389,-2.1648,-1.1333,-0.0065185,0,0,0,2,77
-0.98445,-0.97389,-1.1648,-2.1333,-0.0065185,0,0,0,2,78
-0.98445,-1.9739,-1.1648,-2.1333,-0.0065185,0,0,0,2,79
3.0156,-1.9739,2.8352,-2.1333,-0.0065185,0,0,0,2,80
-1.9844,4.0261,-2.1648,-2.1333,-0.0065185,0,0,1,2,81
4.0156,-1.9739,3.8352,-2.1333,-0.0065185,0,0,0,2,82
-1.9844,2.0261,1.8352,1.8667,-0.0065185,0,0,1,2,83
-1.9844,3.0261,1.8352,3.8667,-0.0065185,0,0,1,2,84
-1.9844,3.0261,1.8352,2.8667,-0.0065185,0,0,1,2,85
3.0156,-1.9739,2.8352,-2.1333,-0.0065185,0,0,0,2,86
5.0156,-1.9739,4.8352,-2.1333,-0.0065185,0,0,0,2,87
-1.9844,5.0261,-2.1648,2.8667,4.9935,1,0,0,2,88
5.0156,0.026113,4.8352,-0.1333,-0.0065185,0,0,0,2,89
0.01555,4.0261,1.8352,3.8667,-0.0065185,0,0,1,2,90
0.01555,4.0261,1.8352,2.8667,-0.0065185,1,0,1,2,91
0.01555,0.026113,1.8352,-0.1333,-0.0065185,0,0,0,2,92
0.01555,0.026113,-0.16481,-0.1333,-0.0065185,0,0,1,2,93
0.01555,0.026113,-0.16481,-0.1333,-4.0065,1,0,0,2,94
1.0156,0.026113,0.83519,-0.1333,-0.0065185,0,0,0,2,95
4.0156,0.026113,3.8352,-0.1333,-0.0065185,0,0,0,2,96
4.0156,0.026113,3.8352,-0.1333,-0.0065185,0,0,0,2,97
0.01555,3.0261,-0.16481,3.8667,-0.0065185,0,0,1,2,98
3.0156,0.026113,2.8352,-0.1333,1.9935,1,0,1,2,99
3.0156,1.0261,-2.1648,0.8667,-0.0065185,0,0,1,2,100
2.0156,3.0261,-0.16481,-2.1333,-0.0065185,0,0,0,2,101
3.0156,3.0261,2.8352,-2.1333,-0.0065185,0,0,0,2,102
3.0156,4.0261,2.8352,1.8667,-0.0065185,0,0,1,2,103
4.0156,3.0261,3.8352,-2.1333,-0.0065185,0,0,0,2,104
3.0156,5.0261,-2.1648,3.8667,-0.0065185,0,0,1,2,105
3.0156,5.0261,2.8352,4.8667,4.9935,1,0,1,2,106
3.0156,4.0261,-2.1648,4.8667,-0.0065185,0,0,1,2,107
4.0156,3.0261,3.8352,-2.1333,-0.0065185,0,0,0,2,108
3.0156,3.0261,2.8352,-2.1333,-0.0065185,0,0,0,2,109
3.0156,3.0261,2.8352,3.8667,-0.0065185,0,0,1,2,110
3.0156,3.0261,2.8352,-2.1333,-0.0065185,0,0,0,2,111
5.0156,3.0261,4.8352,-2.1333,-0.0065185,0,0,0,2,112
4.0156,3.0261,3.8352,-2.1333,-0.0065185,0,0,0,2,113
-1.9844,3.0261,-2.1648,-2.1333,-0.0065185,0,0,1,2,114
3.0156,-1.9739,2.8352,-2.1333,3.9935,1,0,0,2,115
1.0156,-1.9739,0.83519,2.8667,-0.0065185,0,0,0,2,116
0.01555,-1.9739,-0.16481,2.8667,-0.0065185,0,0,0,2,117
-1.9844,1.0261,-2.1648,-4.1333,-0.0065185,0,0,1,2,118
1.0156,-1.9739,0.83519,2.8667,-4.0065,1,0,0,2,119
-1.9844,4.0261,-2.1648,3.8667,-0.0065185,0,0,1,2,120
2.0156,-1.9739,3.8352,2.8667,-0.0065185,0,0,0,2,121
1.0156,-1.9739,0.83519,-2.1333,-0.0065185,0,0,0,2,122
2.0156,-1.9739,1.8352,-2.1333,-0.0065185,0,0,0,2,123
-1.9844,2.0261,-2.1648,1.8667,-0.0065185,0,0,1,2,124
2.0156,-1.9739,1.8352,2.8667,3.9935,1,0,0,2,125
-0.98445,-1.9739,-4.1648,2.8667,-0.0065185,0,0,1,2,126
-3.9844,-0.97389,-2.1648,-4.1333,-0.0065185,0,0,1,2,127
-0.98445,-3.9739,-1.1648,-4.1333,-0.0065185,0,0,0,2,128
3.0156,-3.9739,-1.1648,-2.1333,-0.0065185,0,0,0,2,129
-3.9844,5.0261,-2.1648,2.8667,-0.0065185,0,0,1,2,130
-3.9844,4.0261,-2.1648,3.8667,-0.0065185,0,0,1,2,131
4.0156,-3.9739,4.8352,-4.1333,-5.0065,1,0,0,2,132
-3.9844,5.0261,-2.1648,4.8667,-0.0065185,0,0,1,2,133
4.0156,-3.9739,4.8352,-4.1333,-0.0065185,0,0,0,2,134
4.0156,-3.9739,3.8352,-4.1333,-0.0065185,0,0,0,2,135
3.0156,-3.9739,3.8352,-4.1333,-0.0065185,0,0,0,2,136
5.0156,-3.9739,2.8352,-4.1333,-0.0065185,0,0,0,2,137
3.0156,-3.9739,2.8352,-2.1333,-0.0065185,0,0,0,2,138
3.0156,-3.9739,4.8352,-4.1333,-4.0065,1,0,1,2,139
3.0156,2.0261,3.8352,-2.1333,-0.0065185,0,0,1,2,140
3.0156,5.0261,4.8352,1.8667,-0.0065185,0,0,1,2,141
2.0156,3.0261,4.8352,4.8667,-0.0065185,0,0,0,2,142
3.0156,3.0261,3.8352,1.8667,-0.0065185,0,0,1,2,143
3.0156,-1.9739,4.8352,-2.1333,-0.0065185,0,0,0,2,144
3.0156,-1.9739,3.8352,-2.1333,-4.0065,1,0,0,2,145
5.0156,-1.9739,3.8352,-2.1333,-0.0065185,0,0,0,2,146
-0.98445,-1.9739,-1.1648,-2.1333,-0.0065185,0,0,0,2,147
1.0156,-1.9739,4.8352,2.8667,-0.0065185,0,0,0,2,148
-1.9844,1.0261,2.8352,0.8667,-0.0065185,0,0,1,2,149
1.0156,-1.9739,0.83519,-2.1333,-4.0065,1,0,0,2,150
-0.98445,-1.9739,3.8352,-2.1333,-0.0065185,0,0,1,2,151
-0.98445,-1.9739,-1.1648,2.8667,-0.0065185,0,0,0,2,152
-2.9844,-1.9739,-3.1648,2.8667,-0.0065185,0,0,1,2,153
-0.98445,-2.9739,-1.1648,3.8667,-0.0065185,0,0,0,2,154
-2.9844,-2.9739,3.8352,-2.1333,-0.0065185,0,0,0,2,155
-2.9844,-2.9739,-3.1648,-2.1333,3.9935,1,0,0,2,156
2.0156,-2.9739,1.8352,-3.1333,-0.0065185,0,0,0,2,157
-2.9844,4.0261,-3.1648,-4.1333,-0.0065185,0,0,1,2,158
3.0156,-2.9739,2.8352,-2.1333,-0.0065185,0,0,0,2,159
-2.9844,3.0261,-3.1648,2.8667,-0.0065185,0,0,1,2,160
-2.9844,2.0261,-3.1648,1.8667,-0.0065185,0,0,1,2,161
5.0156,-2.9739,3.8352,-3.1333,-0.0065185,0,0,0,2,162
-2.9844,5.0261,-3.1648,4.8667,-4.0065,1,0,1,2,163
5.0156,-2.9739,-4.1648,-3.1333,-0.0065185,0,0,0,2,164
4.0156,-2.9739,3.8352,-3.1333,-0.0065185,0,0,0,2,165
-2.9844,3.0261,-3.1648,4.8667,-0.0065185,0,0,1,2,166
3.0156,-2.9739,2.8352,-2.1333,-0.0065185,0,0,0,2,167
3.0156,-2.9739,2.8352,-2.1333,1.9935,1,0,0,2,168
-2.9844,-0.97389,-3.1648,-2.1333,-0.0065185,0,0,0,2,169
2.0156,-0.97389,1.8352,-2.1333,-0.0065185,0,0,0,2,170
-0.98445,3.0261,-2.1648,-2.1333,-0.0065185,0,0,1,2,171
3.0156,-0.97389,2.8352,-2.1333,-3.0065,1,0,0,2,172
-0.98445,3.0261,-2.1648,2.8667,-0.0065185,0,0,1,2,173
-0.98445,4.0261,-2.1648,3.8667,-0.0065185,0,0,1,2,174
-0.98445,5.0261,-1.1648,2.8667,-0.0065185,0,0,1,2,175
-0.98445,5.0261,-1.1648,4.8667,-0.0065185,0,0,1,2,176
-0.98445,5.0261,-2.1648,4.8667,-0.0065185,0,0,1,2,177
-0.98445,2.0261,-1.1648,1.8667,-0.0065185,0,0,1,2,178
2.0156,-0.97389,4.8352,-2.1333,-5.0065,1,0,0,2,179
-0.98445,-1.9739,-2.1648,4.8667,-0.0065185,0,0,0,2,180
-1.9844,-1.9739,-2.1648,4.8667,-0.0065185,0,0,1,2,181
-1.9844,-0.97389,-1.1648,-1.1333,-0.0065185,0,0,1,2,182
-1.9844,1.0261,-1.1648,-2.1333,-0.0065185,0,0,1,2,183
-1.9844,4.0261,-2.1648,0.8667,-0.0065185,0,0,1,2,184
4.0156,-1.9739,3.8352,-2.1333,3.9935,1,0,0,2,185
-1.9844,4.0261,-1.1648,-4.1333,-0.0065185,0,0,1,2,186
-1.9844,4.0261,-1.1648,3.8667,-0.0065185,0,0,1,2,187
-1.9844,0.026113,-2.1648,-0.1333,-0.0065185,0,0,1,2,188
-0.98445,-1.9739,3.8352,-2.1333,-0.0065185,0,0,0,2,189
-1.9844,-0.97389,-2.1648,-1.1333,4.9935,1,0,1,2,190
-1.9844,-1.9739,-1.1648,-2.1333,-0.0065185,0,0,0,2,191
-1.9844,2.0261,4.8352,-2.1333,-0.0065185,0,0,1,2,192
-1.9844,1.0261,4.8352,0.8667,-0.0065185,0,0,1,2,193
2.0156,-1.9739,1.8352,-2.1333,-0.0065185,0,0,0,2,194
0.01555,-1.9739,-0.16481,-2.1333,-0.0065185,0,0,0,2,195
0.01555,-1.9739,3.8352,-2.1333,-0.0065185,0,0,0,2,196
0.01555,-1.9739,1.8352,-2.1333,-0.0065185,0,0,0,2,197
0.01555,-1.9739,-0.16481,-2.1333,-5.0065,1,0,0,2,198
-1.9844,0.026113,4.8352,4.8667,-0.0065185,0,0,1,2,199
2.0156,-1.9739,1.8352,-2.1333,-0.0065185,0,0,0,2,200
-1.9844,0.026113,4.8352,-0.1333,-0.0065185,0,0,1,2,201
0.01555,-1.9739,-0.16481,4.8667,2.9935,1,0,1,2,202
0.01555,-1.9739,-3.1648,-2.1333,-0.0065185,0,0,0,2,203
-1.9844,4.0261,-2.1648,3.8667,-0.0065185,0,0,1,2,204
4.0156,-1.9739,-0.16481,-2.1333,-0.0065185,0,0,0,2,205
4.0156,-1.9739,3.8352,-2.1333,2.9935,1,0,1,2,206
-0.98445,4.0261,-2.1648,3.8667,-0.0065185,0,0,1,2,207
-0.98445,5.0261,-2.1648,4.8667,-0.0065185,0,0,1,2,208
1.0156,-0.97389,-3.1648,-2.1333,-0.0065185,0,0,0,2,209
-0.98445,-0.97389,-2.1648,0.8667,-0.0065185,0,0,1,2,210
-0.98445,-0.97389,-1.1648,-1.1333,-0.0065185,0,0,1,2,211
-0.98445,-0.97389,-1.1648,-1.1333,-0.0065185,0,0,1,2,212
-0.98445,1.0261,-1.1648,-2.1333,-0.0065185,0,0,1,2,213
-0.98445,1.0261,-1.1648,0.8667,-3.0065,1,0,1,2,214
-0.98445,2.0261,-1.1648,1.8667,-0.0065185,0,0,1,2,215
1.0156,-0.97389,-3.1648,-1.1333,-0.0065185,0,0,0,2,216
-0.98445,1.0261,-1.1648,0.8667,-0.0065185,0,0,1,2,217
-0.98445,0.026113,-1.1648,-0.1333,-0.0065185,0,0,1,2,218
0.01555,-0.97389,0.83519,-1.1333,-4.0065,1,0,0,2,219
1.0156,-0.97389,0.83519,-1.1333,-0.0065185,0,0,0,2,220
0.01555,-0.97389,-0.16481,-1.1333,-0.0065185,0,0,0,2,221
2.0156,-0.97389,1.8352,-1.1333,-0.0065185,0,0,0,2,222
-0.98445,2.0261,-1.1648,3.8667,2.9935,1,0,1,2,223
-0.98445,3.0261,-1.1648,2.8667,-0.0065185,0,0,1,2,224
-0.98445,4.0261,-1.1648,2.8667,-0.0065185,0,0,1,2,225
4.0156,-0.97389,3.8352,-1.1333,-0.0065185,0,0,0,2,226
-0.98445,5.0261,-1.1648,3.8667,-0.0065185,0,0,1,2,227
1.0156,-0.97389,4.8352,-1.1333,-0.0065185,0,0,0,2,228
-0.98445,-0.97389,-1.1648,-1.1333,-0.0065185,0,0,1,2,229
-0.98445,-0.97389,-1.1648,-1.1333,-5.0065,1,0,0,2,230
5.0156,-0.97389,4.8352,-1.1333,-0.0065185,0,0,0,2,231
-0.98445,3.0261,-1.1648,4.8667,-0.0065185,0,0,0,2,232
3.0156,-1.9739,2.8352,0.8667,-0.0065185,0,0,0,2,233
2.0156,-1.9739,1.8352,-2.1333,-0.0065185,0,0,0,2,234
-1.9844,3.0261,-2.1648,4.8667,-0.0065185,0,0,1,2,235
3.0156,-1.9739,2.8352,0.8667,-0.0065185,0,0,0,2,236
3.0156,-1.9739,2.8352,0.8667,-0.0065185,0,0,0,2,237
4.0156,-1.9739,2.8352,-2.1333,-0.0065185,0,0,0,2,238
4.0156,-1.9739,3.8352,0.8667,-0.0065185,0,0,0,2,239
4.0156,-1.9739,3.8352,0.8667,-0.0065185,0,0,0,2,240
3.0156,-1.9739,3.8352,0.8667,-0.0065185,0,0,0,2,241
-1.9844,3.0261,-2.1648,2.8667,-0.0065185,0,0,1,2,242
3.0156,-1.9739,2.8352,-2.1333,-0.0065185,0,0,0,2,243
2.0156,-1.9739,2.8352,0.8667,-0.0065185,0,0,0,2,244
2.0156,-1.9739,1.8352,0.8667,3.9935,1,0,1,2,245
2.0156,0.026113,-4.1648,-0.1333,-0.0065185,0,0,1,2,246
2.0156,3.0261,1.8352,-2.1333,-0.0065185,0,0,1,2,247
2.0156,2.0261,1.8352,2.8667,-0.0065185,0,0,1,2,248
3.0156,2.0261,1.8352,-4.1333,-0.0065185,0,0,0,2,249
2.0156,0.026113,-4.1648,2.8667,-0.0065185,0,0,1,2,250
4.0156,3.0261,3.8352,2.8667,-2.0065,1,0,0,3,76
-0.98445,3.0261,-1.1648,-2.1333,-0.0065185,0,0,1,3,77
-0.98445,1.0261,-1.1648,2.8667,-0.0065185,0,0,1,3,78
-0.98445,1.0261,-1.1648,0.8667,-0.0065185,0,0,1,3,79
-0.98445,-2.9739,-1.1648,-3.1333,-0.0065185,0,0,0,3,80
-2.9844,-1.9739,-3.1648,-3.1333,-0.0065185,0,0,0,3,81
-2.9844,-1.9739,-1.1648,-3.1333,-0.0065185,0,0,0,3,82
-1.9844,-2.9739,-3.1648,0.8667,-0.0065185,0,0,0,3,83
1.0156,-2.9739,-2.1648,-3.1333,-0.0065185,0,0,0,3,84
-2.9844,2.0261,-3.1648,0.8667,-0.0065185,0,0,1,3,85
-2.9844,2.0261,-3.1648,0.8667,-0.0065185,0,0,0,3,86
3.0156,2.0261,2.8352,0.8667,-0.0065185,0,0,0,3,87
2.0156,3.0261,0.83519,0.8667,-4.0065,1,0,0,3,88
1.0156,3.0261,1.8352,0.8667,-0.0065185,0,0,0,3,89
2.0156,3.0261,0.83519,0.8667,-0.0065185,0,0,0,3,90
3.0156,3.0261,-4.1648,2.8667,-0.0065185,0,0,1,3,91
4.0156,3.0261,3.8352,0.8667,-0.0065185,0,0,0,3,92
3.0156,3.0261,1.8352,-4.1333,-0.0065185,0,0,0,3,93
3.0156,3.0261,2.8352,0.8667,-4.0065,1,0,1,3,95
3.0156,3.0261,-4.1648,2.8667,-0.0065185,0,0,0,3,96
5.0156,3.0261,4.8352,2.8667,-0.0065185,0,0,1,3,97
5.0156,3.0261,4.8352,2.8667,-0.0065185,0,0,0,3,98
3.0156,5.0261,2.8352,2.8667,-4.0065,1,0,1,3,99
3.0156,3.0261,3.8352,-4.1333,-0.0065185,0,0,1,3,100
0.01555,3.0261,-0.16481,2.8667,-0.0065185,0,0,0,3,101
3.0156,1.0261,3.8352,2.8667,-0.0065185,0,0,1,3,102
-0.98445,3.0261,0.83519,2.8667,-0.0065185,0,0,1,3,103
-0.98445,4.0261,0.83519,3.8667,-0.0065185,0,0,0,3,104
4.0156,2.0261,3.8352,-1.1333,-0.0065185,0,0,1,3,105
2.0156,4.0261,1.8352,3.8667,3.9935,1,0,1,3,106
0.01555,2.0261,-0.16481,-4.1333,-0.0065185,0,0,1,3,107
-1.9844,0.026113,1.8352,-0.1333,-0.0065185,0,0,0,3,108
0.01555,-1.9739,-0.16481,-2.1333,-0.0065185,0,0,0,3,109
2.0156,-1.9739,3.8352,-2.1333,-0.0065185,0,0,0,3,110
5.0156,-1.9739,1.8352,-2.1333,-0.0065185,0,0,0,3,111
2.0156,-1.9739,4.8352,-2.1333,-0.0065185,0,0,0,3,112
4.0156,-1.9739,3.8352,-2.1333,-0.0065185,0,0,0,3,113
-1.9844,1.0261,-2.1648,1.8667,-0.0065185,0,0,1,3,114
1.0156,-1.9739,0.83519,-2.1333,-4.0065,1,0,1,3,115
-1.9844,1.0261,-2.1648,3.8667,-0.0065185,0,0,1,3,116
-1.9844,1.0261,-2.1648,0.8667,-0.0065185,0,0,0,3,117
1.0156,-0.97389,0.83519,-2.1333,-0.0065185,0,0,0,3,118
1.0156,-0.97389,0.83519,-1.1333,3.9935,1,0,0,3,119
-0.98445,4.0261,-1.1648,-4.1333,-0.0065185,0,0,0,3,120
4.0156,4.0261,3.8352,3.8667,-0.0065185,0,0,1,3,121
4.0156,2.0261,3.8352,-2.1333,-0.0065185,0,0,0,3,122
-1.9844,2.0261,-4.1648,-2.1333,-0.0065185,0,0,1,3,123
-1.9844,0.026113,-2.1648,-0.1333,-0.0065185,0,0,1,3,124
-1.9844,0.026113,-2.1648,1.8667,-4.0065,1,0,1,3,125
-1.9844,-1.9739,-2.1648,-2.1333,-0.0065185,0,0,1,3,126
-1.9844,-1.9739,-2.1648,-4.1333,-0.0065185,0,0,0,3,127
-1.9844,-1.9739,-2.1648,-4.1333,-0.0065185,0,0,0,3,128
-1.9844,-0.97389,-2.1648,-1.1333,-0.0065185,0,0,0,3,129
-0.98445,1.0261,-1.1648,-4.1333,-0.0065185,0,0,0,3,130
1.0156,0.026113,-4.1648,-4.1333,-0.0065185,0,0,0,3,131
1.0156,0.026113,0.83519,-0.1333,2.9935,1,0,0,3,132
0.01555,0.026113,-3.1648,-4.1333,-0.0065185,0,0,0,3,133
0.01555,2.0261,-0.16481,1.8667,-0.0065185,0,0,0,3,134
2.0156,3.0261,1.8352,-4.1333,-0.0065185,0,0,0,3,135
-1.9844,3.0261,-2.1648,-4.1333,-0.0065185,0,0,0,3,136
-0.98445,3.0261,-0.16481,2.8667,-0.0065185,0,0,1,3,137
-0.98445,3.0261,-0.16481,-4.1333,-0.0065185,0,0,1,3,138
-0.98445,3.0261,-0.16481,2.8667,-4.0065,1,0,1,3,139
-0.98445,1.0261,-0.16481,-4.1333,-0.0065185,0,0,1,3,140
-0.98445,-2.9739,-0.16481,0.8667,-0.0065185,0,0,0,3,141
0.01555,-2.9739,-1.1648,-3.1333,-0.0065185,0,0,0,3,142
0.01555,-2.9739,-0.16481,-3.1333,-0.0065185,0,0,1,3,143
-0.98445,0.026113,0.83519,-0.1333,-0.0065185,0,0,0,3,144
0.01555,-0.97389,-0.16481,-1.1333,-2.0065,1,0,0,3,145
2.0156,-0.97389,1.8352,-2.1333,-0.0065185,0,0,1,3,146
2.0156,-2.9739,-0.16481,-1.1333,-0.0065185,0,0,1,3,147
-2.9844,2.0261,-3.1648,-0.1333,-0.0065185,0,0,1,3,148
2.0156,-2.9739,1.8352,-3.1333,-0.0065185,0,0,1,3,149
2.0156,-2.9739,1.8352,-3.1333,3.9935,1,0,0,3,150
-2.9844,-0.97389,3.8352,-1.1333,-0.0065185,0,0,1,3,151
-2.9844,-2.9739,1.8352,-3.1333,-0.0065185,0,0,1,3,152
-2.9844,1.0261,-3.1648,0.8667,-0.0065185,0,0,0,3,153
1.0156,-0.97389,3.8352,-1.1333,-0.0065185,0,0,0,3,154
-0.98445,5.0261,1.8352,0.8667,-0.0065185,0,0,1,3,155
5.0156,-0.97389,4.8352,-1.1333,3.9935,1,0,1,3,156
3.0156,5.0261,2.8352,-4.1333,-0.0065185,0,0,1,3,157
4.0156,3.0261,4.8352,2.8667,-0.0065185,0,0,1,3,158
4.0156,-3.9739,4.8352,-4.1333,-0.0065185,0,0,0,3,159
-3.9844,-1.9739,-4.1648,3.8667,-0.0065185,0,0,1,3,160
-3.9844,-2.9739,-4.1648,-3.1333,-0.0065185,0,0,1,3,161
-3.9844,-3.9739,1.8352,-2.1333,-0.0065185,0,0,1,3,162
-3.9844,-3.9739,-4.1648,-4.1333,-4.0065,1,0,1,3,163
-3.9844,-3.9739,-4.1648,-4.1333,-0.0065185,0,0,1,3,164
0.01555,-3.9739,-0.16481,-4.1333,-0.0065185,0,0,0,3,165
3.0156,-3.9739,1.8352,-4.1333,-0.0065185,0,0,1,3,166
3.0156,-2.9739,1.8352,-4.1333,-0.0065185,0,0,0,3,167
-2.9844,3.0261,-3.1648,2.8667,-4.0065,1,0,1,3,168
3.0156,-2.9739,2.8352,-4.1333,-0.0065185,0,0,0,3,169
1.0156,-2.9739,-4.1648,-3.1333,-0.0065185,0,0,0,3,170
0.01555,-2.9739,0.83519,-4.1333,-0.0065185,0,0,0,3,171
0.01555,-2.9739,-0.16481,-3.1333,-5.0065,1,0,0,3,172
1.0156,-2.9739,0.83519,-4.1333,-0.0065185,0,0,1,3,173
1.0156,-3.9739,0.83519,-3.1333,-0.0065185,0,0,1,3,174
-2.9844,1.0261,-3.1648,4.8667,-0.0065185,0,0,1,3,175
-2.9844,-2.9739,0.83519,-4.1333,-0.0065185,0,0,0,3,176
-2.9844,-2.9739,-3.1648,-4.1333,-0.0065185,0,0,0,3,177
-3.9844,-2.9739,-3.1648,-4.1333,-0.0065185,0,0,1,3,178
-3.9844,-2.9739,-3.1648,-3.1333,4.9935,1,0,1,3,179
-3.9844,1.0261,-3.1648,4.8667,-0.0065185,0,0,0,3,180
-2.9844,1.0261,-3.1648,0.8667,-0.0065185,0,0,0,3,181
-2.9844,1.0261,-3.1648,4.8667,-0.0065185,0,0,1,3,182
-0.98445,-2.9739,0.83519,-4.1333,-0.0065185,0,0,0,3,183
-2.9844,-0.97389,-4.1648,-1.1333,-0.0065185,0,0,0,3,184
-2.9844,-0.97389,-3.1648,-1.1333,2.9935,1,0,0,3,185
0.01555,-0.97389,-0.16481,-1.1333,-0.0065185,0,0,1,3,186
0.01555,-2.9739,-3.1648,-1.1333,-0.0065185,0,0,1,3,187
0.01555,-1.9739,-0.16481,-3.1333,-0.0065185,0,0,1,3,188
0.01555,-1.9739,-0.16481,-2.1333,-0.0065185,0,0,1,3,189
0.01555,-1.9739,-0.16481,-2.1333,4.9935,1,0,1,3,190
0.01555,4.0261,-3.1648,4.8667,-0.0065185,0,0,0,3,191
-0.98445,4.0261,-1.1648,4.8667,-0.0065185,0,0,0,3,192
-0.98445,4.0261,-0.16481,3.8667,-0.0065185,0,0,0,3,193
2.0156,4.0261,1.8352,4.8667,-0.0065185,0,0,1,3,194
-2.9844,2.0261,3.8352,-1.1333,-0.0065185,0,0,0,3,195
-3.9844,2.0261,-4.1648,-1.1333,-0.0065185,0,0,1,3,196
-3.9844,2.0261,-4.1648,1.8667,-0.0065185,0,0,1,3,197
2.0156,-3.9739,1.8352,-4.1333,3.9935,1,0,0,3,198
2.0156,-3.9739,1.8352,-4.1333,-0.0065185,0,0,0,3,199
-3.9844,3.0261,-4.1648,-4.1333,-0.0065185,0,0,1,3,200
-3.9844,0.026113,-4.1648,-0.1333,-0.0065185,0,0,1,3,201
0.01555,-3.9739,2.8352,-3.1333,-4.0065,1,0,1,3,202
0.01555,-0.97389,3.8352,-1.1333,-0.0065185,0,0,0,3,203
2.0156,-0.97389,2.8352,-1.1333,-0.0065185,0,0,1,3,204
1.0156,2.0261,-4.1648,1.8667,-0.0065185,0,0,0,3,205
2.0156,1.0261,2.8352,0.8667,4.9935,1,0,1,3,206
2.0156,2.0261,4.8352,1.8667,-0.0065185,0,0,0,3,207
2.0156,0.026113,2.8352,1.8667,-0.0065185,0,0,0,3,208
-0.98445,0.026113,-1.1648,-0.1333,-0.0065185,0,0,0,3,209
-1.9844,0.026113,1.8352,1.8667,-0.0065185,0,0,0,3,210
0.01555,-0.97389,-0.16481,-1.1333,-0.0065185,0,0,0,3,211
0.01555,-0.97389,-0.16481,-1.1333,-0.0065185,0,0,1,3,212
0.01555,3.0261,-0.16481,2.8667,-0.0065185,0,0,1,3,213
3.0156,0.026113,-2.1648,-0.1333,-3.0065,1,0,0,3,214
2.0156,0.026113,1.8352,1.8667,-0.0065185,0,0,1,3,215
2.0156,-3.9739,1.8352,-0.1333,-0.0065185,0,0,1,3,216
-2.9844,2.0261,-3.1648,2.8667,-0.0065185,0,0,1,3,217
-0.98445,-2.9739,-1.1648,-4.1333,-0.0065185,0,0,0,3,218
-0.98445,-2.9739,1.8352,-3.1333,1.9935,1,0,1,3,219
-0.98445,-3.9739,1.8352,-4.1333,-0.0065185,0,0,1,3,220
-0.98445,1.0261,-2.1648,-4.1333,-0.0065185,0,0,0,3,221
1.0156,-0.97389,0.83519,1.8667,-0.0065185,0,0,1,3,222
-0.98445,1.0261,1.8352,0.8667,3.9935,1,0,0,3,223
-0.98445,1.0261,-4.1648,-4.1333,-0.0065185,0,0,0,3,224
0.01555,1.0261,-1.1648,-4.1333,-0.0065185,0,0,1,3,225
1.0156,0.026113,0.83519,-0.1333,1.9935,1,0,1,3,226
-2.9844,1.0261,-1.1648,0.8667,-0.0065185,0,0,0,3,227
-1.9844,1.0261,-2.1648,0.8667,-0.0065185,0,0,0,3,228
-0.98445,1.0261,-1.1648,0.8667,-0.0065185,0,0,0,3,229
-0.98445,1.0261,-3.1648,-2.1333,1.9935,1,0,0,3,230
1.0156,1.0261,-2.1648,0.8667,-0.0065185,0,0,0,3,231
1.0156,-0.97389,0.83519,0.8667,-0.0065185,0,0,0,3,232
-1.9844,-0.97389,-2.1648,0.8667,-0.0065185,0,0,0,3,233
-1.9844,-0.97389,-2.1648,0.8667,-0.0065185,0,0,0,3,234
-0.98445,-1.9739,-1.1648,-2.1333,2.9935,1,0,1,3,235
-0.98445,0.026113,-1.1648,-0.1333,-0.0065185,0,0,1,3,236
-0.98445,1.0261,-1.1648,2.8667,-0.0065185,0,0,0,3,237
-1.9844,1.0261,0.83519,0.8667,-0.0065185,0,0,1,3,238
2.0156,-1.9739,2.8352,0.8667,-0.0065185,0,0,0,3,239
-1.9844,1.0261,0.83519,1.8667,-0.0065185,0,0,1,3,240
3.0156,-1.9739,0.83519,0.8667,-0.0065185,0,0,0,3,241
5.0156,-1.9739,4.8352,0.8667,-0.0065185,0,0,0,3,242
5.0156,-1.9739,4.8352,0.8667,-0.0065185,0,0,1,3,243
3.0156,5.0261,-2.1648,4.8667,-0.0065185,0,0,0,3,244
5.0156,3.0261,4.8352,2.8667,2.9935,1,0,0,3,245
3.0156,0.026113,2.8352,-0.1333,-0.0065185,0,0,0,3,246
0.01555,4.0261,-0.16481,2.8667,-0.0065185,0,0,1,3,247
0.01555,4.0261,-0.16481,3.8667,-0.0065185,0,0,0,3,248
4.0156,5.0261,3.8352,4.8667,-0.0065185,0,0,0,3,249
-0.98445,5.0261,3.8352,2.8667,-0.0065185,0,0,1,3,250
1.0156,1.0261,-0.16481,0.8667,-0.0065185,0,0,1,4,76
1.0156,3.0261,-0.16481,2.8667,-0.0065185,0,0,0,4,77
3.0156,-0.97389,0.83519,-1.1333,-0.0065185,0,0,0,4,78
1.0156,-0.97389,0.83519,-1.1333,-0.0065185,0,0,0,4,79
3.0156,-0.97389,2.8352,0.8667,-0.0065185,0,0,0,4,80
3.0156,-0.97389,2.8352,0.8667,-0.0065185,0,0,0,4,81
2.0156,-0.97389,2.8352,-1.1333,-0.0065185,0,0,0,4,82
-0.98445,-1.9739,-1.1648,1.8667,-0.0065185,0,0,0,4,83
-1.9844,-3.9739,1.8352,0.8667,-0.0065185,0,0,1,4,84
-1.9844,0.026113,1.8352,-0.1333,-0.0065185,0,0,1,4,85
-1.9844,0.026113,-2.1648,-4.1333,-0.0065185,0,0,0,4,86
0.01555,3.0261,-4.1648,1.8667,-0.0065185,0,0,1,4,87
3.0156,0.026113,2.8352,-4.1333,1.9935,1,0,0,4,88
2.0156,0.026113,1.8352,-4.1333,-0.0065185,0,0,0,4,89
2.0156,0.026113,-2.1648,-0.1333,3.9935,1,0,0,4,90
0.01555,0.026113,-4.1648,-0.1333,-0.0065185,0,0,1,4,91
0.01555,-0.97389,-4.1648,-1.1333,-0.0065185,0,0,0,4,92
-0.98445,1.0261,-1.1648,-0.1333,-0.0065185,0,0,0,4,93
-0.98445,1.0261,-4.1648,0.8667,2.9935,1,0,0,4,94
-3.9844,1.0261,-4.1648,0.8667,-0.0065185,0,0,1,4,95
-3.9844,-1.9739,-4.1648,-2.1333,-0.0065185,0,0,0,4,96
-2.9844,-1.9739,-3.1648,-0.1333,-0.0065185,0,0,1,4,97
-2.9844,-1.9739,-3.1648,-2.1333,-0.0065185,0,0,0,4,98
-1.9844,-2.9739,-2.1648,-3.1333,-4.0065,1,0,0,4,99
-3.9844,-2.9739,-4.1648,-3.1333,-0.0065185,0,0,0,4,100
1.0156,-2.9739,0.83519,-3.1333,-0.0065185,0,0,0,4,101
-2.9844,2.0261,-4.1648,1.8667,-0.0065185,0,0,0,4,102
2.0156,-0.97389,1.8352,-3.1333,-0.0065185,0,0,0,4,103
-0.98445,2.0261,-1.1648,-2.1333,-0.0065185,0,0,1,4,104
2.0156,-0.97389,1.8352,-3.1333,-1.0065,1,0,0,4,105
-0.98445,2.0261,-3.1648,0.8667,-4.0065,1,0,0,4,106
5.0156,2.0261,-1.1648,-4.1333,-0.0065185,0,0,1,4,107
-0.98445,5.0261,-1.1648,4.8667,-0.0065185,0,0,1,4,108
5.0156,-0.97389,4.8352,0.8667,-0.0065185,0,0,0,4,109
4.0156,-0.97389,3.8352,0.8667,-0.0065185,0,0,0,4,110
4.0156,-0.97389,3.8352,0.8667,-0.0065185,0,0,0,4,111
-0.98445,5.0261,-1.1648,4.8667,-0.0065185,0,0,1,4,112
-0.98445,5.0261,-1.1648,-3.1333,-0.0065185,0,0,1,4,113
5.0156,-0.97389,-1.1648,0.8667,-0.0065185,0,0,0,4,114
-0.98445,5.0261,-1.1648,4.8667,-4.0065,1,0,1,4,115
2.0156,-0.97389,-4.1648,-1.1333,-0.0065185,0,0,1,4,116
2.0156,1.0261,1.8352,0.8667,-0.0065185,0,0,1,4,117
2.0156,-0.97389,-4.1648,0.8667,-0.0065185,0,0,0,4,118
-0.98445,2.0261,0.83519,1.8667,-2.0065,1,0,1,4,119
-2.9844,-0.97389,-2.1648,0.8667,-0.0065185,0,0,1,4,120
-1.9844,-2.9739,-2.1648,-3.1333,-0.0065185,0,0,1,4,121
-0.98445,-1.9739,-2.1648,-2.1333,-0.0065185,0,0,1,4,122
-0.98445,-1.9739,-2.1648,-2.1333,-0.0065185,0,0,0,4,123
-0.98445,-1.9739,-1.1648,-1.1333,-0.0065185,0,0,1,4,124
-0.98445,-1.9739,-1.1648,-2.1333,-4.0065,1,0,1,4,125
-0.98445,-1.9739,-1.1648,-4.1333,-0.0065185,0,0,1,4,126
-0.98445,2.0261,-1.1648,1.8667,-0.0065185,0,0,0,4,127
3.0156,2.0261,2.8352,1.8667,-0.0065185,0,0,0,4,128
4.0156,2.0261,-1.1648,-2.1333,-0.0065185,0,0,0,4,129
5.0156,2.0261,4.8352,1.8667,-0.0065185,0,0,0,4,130
4.0156,2.0261,3.8352,-2.1333,-0.0065185,0,0,0,4,131
2.0156,4.0261,-2.1648,3.8667,-4.0065,1,0,1,4,132
2.0156,3.0261,-2.1648,2.8667,-0.0065185,0,0,0,4,133
1.0156,3.0261,0.83519,2.8667,-0.0065185,0,0,1,4,134
1.0156,3.0261,0.83519,2.8667,-0.0065185,0,0,0,4,135
3.0156,2.0261,2.8352,1.8667,-0.0065185,0,0,0,4,136
2.0156,4.0261,1.8352,3.8667,-0.0065185,0,0,0,4,137
2.0156,4.0261,1.8352,3.8667,-0.0065185,0,0,1,4,138
4.0156,2.0261,-4.1648,1.8667,2.9935,1,0,1,4,139
-0.98445,4.0261,-1.1648,-3.1333,-0.0065185,0,0,1,4,140
2.0156,-0.97389,-4.1648,-1.1333,-0.0065185,0,0,1,4,141
2.0156,1.0261,-4.1648,1.8667,-0.0065185,0,0,0,4,142
-0.98445,1.0261,1.8352,1.8667,-0.0065185,0,0,1,4,143
-0.98445,-1.9739,1.8352,-2.1333,-0.0065185,0,0,0,4,144
-0.98445,-1.9739,-1.1648,-2.1333,3.9935,1,0,0,4,145
-1.9844,-1.9739,-2.1648,-2.1333,-0.0065185,0,0,0,4,146
-0.98445,-1.9739,-1.1648,-2.1333,-0.0065185,0,0,0,4,147
-1.9844,-2.9739,0.83519,-4.1333,-0.0065185,0,0,0,4,148
-2.9844,1.0261,-4.1648,-2.1333,-0.0065185,0,0,1,4,149
-2.9844,1.0261,-3.1648,0.8667,-3.0065,1,0,0,4,150
-0.98445,1.0261,-1.1648,-3.1333,-0.0065185,0,0,1,4,151
-0.98445,4.0261,-1.1648,0.8667,-0.0065185,0,0,0,4,152
-3.9844,4.0261,-4.1648,3.8667,-0.0065185,0,0,0,4,153
-3.9844,4.0261,-4.1648,3.8667,3.9935,1,0,1,4,154
-3.9844,2.0261,-4.1648,1.8667,-0.0065185,0,0,0,4,155
2.0156,-3.9739,0.83519,-4.1333,-4.0065,1,0,0,4,156
-3.9844,2.0261,-4.1648,1.8667,-0.0065185,0,0,0,4,157
2.0156,2.0261,1.8352,1.8667,-0.0065185,0,0,1,4,158
1.0156,2.0261,-4.1648,1.8667,-0.0065185,0,0,0,4,159
2.0156,1.0261,1.8352,0.8667,-0.0065185,0,0,0,4,160
1.0156,0.026113,0.83519,-0.1333,-0.0065185,0,0,1,4,161
1.0156,1.0261,0.83519,0.8667,-0.0065185,0,0,0,4,162
1.0156,1.0261,0.83519,1.8667,-4.0065,1,0,0,4,163
-2.9844,1.0261,0.83519,1.8667,-0.0065185,0,0,0,4,164
1.0156,2.0261,-4.1648,1.8667,-0.0065185,0,0,1,4,165
4.0156,1.0261,-3.1648,1.8667,-0.0065185,0,0,0,4,166
4.0156,1.0261,3.8352,1.8667,-0.0065185,0,0,0,4,167
4.0156,1.0261,3.8352,1.8667,-3.0065,1,0,0,4,168
3.0156,1.0261,2.8352,-4.1333,-0.0065185,0,0,1,4,169
3.0156,1.0261,2.8352,1.8667,1.9935,1,0,0,4,170
1.0156,3.0261,1.8352,2.8667,-0.0065185,0,0,1,4,171
3.0156,1.0261,2.8352,1.8667,-5.0065,1,0,0,4,172
3.0156,1.0261,2.8352,1.8667,-0.0065185,0,0,1,4,173
5.0156,3.0261,1.8352,4.8667,-0.0065185,0,0,0,4,174
3.0156,3.0261,2.8352,2.8667,-0.0065185,0,0,1,4,175
3.0156,3.0261,2.8352,2.8667,-0.0065185,0,0,1,4,176
2.0156,3.0261,1.8352,4.8667,-0.0065185,0,0,0,4,177
3.0156,2.0261,2.8352,-3.1333,-0.0065185,0,0,1,4,178
3.0156,2.0261,4.8352,4.8667,-4.0065,1,0,1,4,179
3.0156,-3.9739,2.8352,-4.1333,-0.0065185,0,0,1,4,180
-2.9844,3.0261,-4.1648,4.8667,-0.0065185,0,0,0,4,181
3.0156,-1.9739,4.8352,-3.1333,-0.0065185,0,0,0,4,182
4.0156,-1.9739,3.8352,-3.1333,-0.0065185,0,0,1,4,183
4.0156,1.0261,2.8352,-2.1333,-0.0065185,0,0,1,4,184
4.0156,1.0261,2.8352,0.8667,-3.0065,1,0,0,4,185
1.0156,3.0261,-3.1648,3.8667,-0.0065185,0,0,1,4,186
1.0156,1.0261,-3.1648,0.8667,-0.0065185,0,0,1,4,187
0.01555,1.0261,2.8352,-3.1333,-0.0065185,0,0,1,4,188
0.01555,0.026113,2.8352,0.8667,-0.0065185,0,0,1,4,189
0.01555,0.026113,2.8352,-0.1333,-4.0065,1,0,0,4,190
0.01555,4.0261,-0.16481,-0.1333,-0.0065185,0,0,0,4,191
4.0156,1.0261,3.8352,-4.1333,-0.0065185,0,0,1,4,192
4.0156,3.0261,3.8352,2.8667,-0.0065185,0,0,1,4,193
4.0156,0.026113,-0.16481,-0.1333,-0.0065185,0,0,1,4,194
4.0156,4.0261,-0.16481,3.8667,-0.0065185,0,0,0,4,195
-2.9844,4.0261,-3.1648,3.8667,-0.0065185,0,0,0,4,196
4.0156,0.026113,0.83519,-0.1333,-0.0065185,0,0,0,4,197
0.01555,4.0261,3.8352,3.8667,-4.0065,1,0,0,4,198
0.01555,4.0261,-0.16481,-4.1333,-0.0065185,0,0,1,4,199
0.01555,3.0261,-0.16481,3.8667,-0.0065185,0,0,1,4,200
0.01555,4.0261,-0.16481,2.8667,-0.0065185,0,0,1,4,201
0.01555,4.0261,-0.16481,3.8667,-2.0065,1,0,1,4,202
0.01555,3.0261,-0.16481,-2.1333,-0.0065185,0,0,1,4,203
0.01555,3.0261,-0.16481,2.8667,-0.0065185,0,0,1,4,204
1.0156,0.026113,0.83519,-0.1333,-0.0065185,0,0,1,4,205
0.01555,1.0261,-0.16481,2.8667,1.9935,1,0,0,4,206
1.0156,1.0261,0.83519,0.8667,-0.0065185,0,0,0,4,207
-1.9844,1.0261,-2.1648,0.8667,-0.0065185,0,0,1,4,208
-1.9844,2.0261,-2.1648,1.8667,-0.0065185,0,0,0,4,209
0.01555,2.0261,-0.16481,1.8667,-0.0065185,0,0,1,4,210
1.0156,0.026113,0.83519,-2.1333,-0.0065185,0,0,0,4,211
0.01555,-3.9739,-2.1648,2.8667,-0.0065185,0,0,1,4,212
0.01555,-1.9739,-0.16481,-2.1333,-0.0065185,0,0,0,4,213
-1.9844,0.026113,-4.1648,-2.1333,-3.0065,1,0,1,4,214
-1.9844,-1.9739,-3.1648,-4.1333,-0.0065185,0,0,1,4,215
-1.9844,-1.9739,-2.1648,-2.1333,-0.0065185,0,0,0,4,216
-2.9844,-1.9739,-3.1648,-2.1333,-0.0065185,0,0,1,4,217
-2.9844,-0.97389,-3.1648,-1.1333,-0.0065185,0,0,1,4,218
-0.98445,-2.9739,-2.1648,-3.1333,3.9935,1,0,0,4,219
-2.9844,-0.97389,-3.1648,-1.1333,-0.0065185,0,0,0,4,220
0.01555,-0.97389,-0.16481,-4.1333,-0.0065185,0,0,0,4,221
-0.98445,-3.9739,-1.1648,-3.1333,-0.0065185,0,0,1,4,222
-3.9844,-0.97389,-4.1648,-4.1333,2.9935,1,0,0,4,223
-0.98445,-3.9739,-1.1648,-3.1333,-0.0065185,0,0,0,4,224
-3.9844,0.026113,-4.1648,-4.1333,-0.0065185,0,0,1,4,225
-2.9844,-3.9739,-0.16481,-3.1333,-0.0065185,0,0,1,4,226
-2.9844,-2.9739,-4.1648,-3.1333,-0.0065185,0,0,0,4,227
-2.9844,-2.9739,-3.1648,-3.1333,-0.0065185,0,0,1,4,228
-2.9844,-2.9739,-3.1648,-0.1333,-0.0065185,0,0,1,4,229
-2.9844,-2.9739,-3.1648,-3.1333,-3.0065,1,0,0,4,230
-1.9844,-2.9739,-2.1648,-3.1333,-0.0065185,0,0,0,4,231
-1.9844,-2.9739,-3.1648,-3.1333,-0.0065185,0,0,0,4,232
-2.9844,-2.9739,-3.1648,-2.1333,-0.0065185,0,0,1,4,233
-2.9844,-3.9739,-3.1648,-4.1333,-0.0065185,0,0,1,4,234
-1.9844,-2.9739,-3.1648,-3.1333,-0.0065185,0,0,0,4,235
-1.9844,-2.9739,-2.1648,-3.1333,-0.0065185,0,0,1,4,236
-0.98445,-1.9739,-1.1648,-2.1333,-0.0065185,0,0,1,4,237
-2.9844,-0.97389,-2.1648,-1.1333,-0.0065185,0,0,1,4,238
-0.98445,-2.9739,-0.16481,-3.1333,-0.0065185,0,0,1,4,239
-1.9844,-0.97389,-2.1648,-3.1333,-0.0065185,0,0,0,4,240
-2.9844,-0.97389,-2.1648,-3.1333,-0.0065185,0,0,1,4,241
-2.9844,4.0261,-3.1648,-0.1333,-0.0065185,0,0,1,4,242
5.0156,-2.9739,4.8352,-2.1333,-0.0065185,0,0,0,4,243
-2.9844,3.0261,-3.1648,2.8667,-0.0065185,0,0,1,4,244
-2.9844,3.0261,-3.1648,3.8667,-4.0065,1,0,0,4,245
3.0156,1.0261,-4.1648,-2.1333,-0.0065185,0,0,1,4,246
3.0156,1.0261,-4.1648,0.8667,-0.0065185,0,0,0,4,247
-1.9844,1.0261,-2.1648,0.8667,-0.0065185,0,0,1,4,248
4.0156,-1.9739,0.83519,3.8667,-0.0065185,0,0,1,4,249
4.0156,0.026113,0.83519,-2.1333,-0.0065185,0,0,0,4,250
5.0156,0.026113,2.8352,2.8667,-0.0065185,0,0,1,5,76
5.0156,-0.97389,2.8352,-1.1333,-0.0065185,0,0,0,5,77
-0.98445,2.0261,-0.16481,4.8667,-0.0065185,0,0,1,5,78
-0.98445,-0.97389,1.8352,-1.1333,-0.0065185,0,0,0,5,79
-1.9844,-0.97389,-2.1648,-1.1333,-0.0065185,0,0,1,5,80
1.0156,-1.9739,-0.16481,-1.1333,-0.0065185,0,0,0,5,81
1.0156,-1.9739,0.83519,-1.1333,-0.0065185,0,0,0,5,82
-1.9844,1.0261,-1.1648,0.8667,-0.0065185,0,0,1,5,83
3.0156,-1.9739,0.83519,-1.1333,-0.0065185,0,0,0,5,84
-1.9844,1.0261,-1.1648,2.8667,-0.0065185,0,0,1,5,85
-1.9844,3.0261,-1.1648,2.8667,-0.0065185,0,0,1,5,86
4.0156,-1.9739,0.83519,-1.1333,-0.0065185,0,0,0,5,87
-1.9844,4.0261,-1.1648,3.8667,4.9935,1,0,1,5,88
-1.9844,3.0261,-1.1648,2.8667,-0.0065185,0,0,1,5,89
4.0156,-1.9739,4.8352,-1.1333,-0.0065185,0,0,0,5,90
-1.9844,4.0261,-1.1648,3.8667,-0.0065185,1,0,1,5,91
2.0156,-1.9739,-0.16481,-1.1333,-0.0065185,0,0,0,5,92
-1.9844,0.026113,-1.1648,1.8667,-0.0065185,0,0,1,5,93
0.01555,-1.9739,-0.16481,-1.1333,1.9935,1,0,1,5,94
3.0156,0.026113,-2.1648,-0.1333,-0.0065185,0,0,1,5,95
3.0156,4.0261,2.8352,-2.1333,-0.0065185,0,0,1,5,96
3.0156,3.0261,-2.1648,3.8667,-0.0065185,0,0,1,5,97
2.0156,3.0261,1.8352,2.8667,-0.0065185,0,0,0,5,98
3.0156,2.0261,2.8352,2.8667,4.9935,1,0,1,5,99
3.0156,-1.9739,2.8352,-2.1333,-0.0065185,0,0,1,5,100
0.01555,3.0261,4.8352,2.8667,-0.0065185,0,0,0,5,101
3.0156,-1.9739,-2.1648,-0.1333,-0.0065185,0,0,0,5,102
2.0156,-1.9739,2.8352,-0.1333,-0.0065185,0,0,0,5,103
-1.9844,3.0261,-2.1648,2.8667,-0.0065185,0,0,1,5,104
4.0156,-1.9739,1.8352,-2.1333,-0.0065185,0,0,0,5,105
-1.9844,4.0261,-2.1648,3.8667,4.9935,1,0,1,5,106
4.0156,-1.9739,3.8352,-0.1333,-0.0065185,0,0,0,5,107
4.0156,-1.9739,3.8352,-0.1333,-0.0065185,0,0,1,5,108
-1.9844,4.0261,-2.1648,3.8667,-0.0065185,0,0,1,5,109
2.0156,-1.9739,4.8352,-2.1333,-0.0065185,0,0,0,5,110
5.0156,-1.9739,1.8352,-2.1333,-0.0065185,0,0,1,5,111
5.0156,4.0261,1.8352,3.8667,-0.0065185,0,0,0,5,112
4.0156,4.0261,-2.1648,3.8667,-0.0065185,0,0,1,5,113
4.0156,4.0261,3.8352,3.8667,-0.0065185,0,0,1,5,114
4.0156,4.0261,4.8352,-2.1333,4.9935,1,0,0,5,115
3.0156,4.0261,2.8352,-2.1333,-0.0065185,0,0,1,5,116
3.0156,3.0261,2.8352,3.8667,-0.0065185,0,0,1,5,117
3.0156,0.026113,2.8352,-0.1333,-0.0065185,0,0,1,5,118
0.01555,3.0261,2.8352,2.8667,1.9935,1,0,1,5,119
0.01555,4.0261,-2.1648,4.8667,-0.0065185,0,0,1,5,120
0.01555,4.0261,2.8352,3.8667,-0.0065185,0,0,1,5,121
0.01555,3.0261,2.8352,3.8667,-0.0065185,0,0,1,5,122
0.01555,1.0261,-2.1648,0.8667,-0.0065185,0,0,0,5,123
1.0156,-1.9739,2.8352,-2.1333,-0.0065185,0,0,0,5,124
-1.9844,1.0261,2.8352,0.8667,4.9935,1,0,1,5,125
-1.9844,-0.97389,2.8352,-1.1333,-0.0065185,0,0,1,5,126
-1.9844,3.0261,2.8352,4.8667,-0.0065185,0,0,1,5,127
1.0156,-1.9739,0.83519,-2.1333,-0.0065185,0,0,0,5,128
-1.9844,1.0261,2.8352,2.8667,-0.0065185,0,0,1,5,129
1.0156,-1.9739,0.83519,-2.1333,-0.0065185,0,0,1,5,130
3.0156,1.0261,2.8352,0.8667,-0.0065185,0,0,0,5,131
1.0156,3.0261,0.83519,2.8667,-4.0065,1,0,1,5,132
1.0156,0.026113,0.83519,-0.1333,-0.0065185,0,0,0,5,133
4.0156,0.026113,3.8352,-0.1333,-0.0065185,0,0,0,5,134
4.0156,0.026113,3.8352,-0.1333,-0.0065185,0,0,0,5,135
0.01555,3.0261,-4.1648,0.8667,-0.0065185,0,0,1,5,136
3.0156,0.026113,2.8352,-0.1333,-0.0065185,0,0,1,5,137
5.0156,3.0261,-4.1648,2.8667,-0.0065185,0,0,0,5,138
3.0156,5.0261,2.8352,4.8667,4.9935,1,0,0,5,139
5.0156,3.0261,4.8352,2.8667,-0.0065185,0,0,0,5,140
2.0156,3.0261,1.8352,2.8667,-0.0065185,0,0,1,5,141
2.0156,4.0261,4.8352,3.8667,-0.0065185,0,0,1,5,142
3.0156,2.0261,2.8352,4.8667,-0.0065185,0,0,1,5,143
4.0156,3.0261,1.8352,2.8667,-0.0065185,0,0,1,5,144
4.0156,3.0261,3.8352,2.8667,4.9935,1,0,1,5,145
5.0156,4.0261,4.8352,3.8667,-0.0065185,0,0,1,5,146
2.0156,5.0261,1.8352,4.8667,-0.0065185,0,0,0,5,147
5.0156,4.0261,4.8352,1.8667,-0.0065185,0,0,1,5,148
4.0156,5.0261,3.8352,4.8667,-0.0065185,0,0,1,5,149
4.0156,5.0261,3.8352,4.8667,3.9935,1,0,1,5,150
4.0156,4.0261,3.8352,3.8667,-0.0065185,0,0,0,5,151
4.0156,1.0261,3.8352,0.8667,-0.0065185,0,0,1,5,152
4.0156,-0.97389,3.8352,-1.1333,-0.0065185,0,0,1,5,153
-3.9844,4.0261,3.8352,3.8667,-0.0065185,0,0,0,5,154
-1.9844,4.0261,-2.1648,3.8667,-0.0065185,0,0,0,5,155
4.0156,-1.9739,3.8352,-4.1333,-4.0065,1,0,0,5,156
3.0156,-1.9739,2.8352,-4.1333,-0.0065185,0,0,1,5,157
3.0156,1.0261,2.8352,0.8667,-0.0065185,0,0,1,5,158
2.0156,3.0261,-4.1648,3.8667,-0.0065185,0,0,1,5,159
2.0156,0.026113,-4.1648,-0.1333,-0.0065185,0,0,0,5,160
-1.9844,0.026113,1.8352,-0.1333,-0.0065185,0,0,1,5,161
-1.9844,-2.9739,-2.1648,2.8667,-0.0065185,0,0,1,5,162
-1.9844,-2.9739,-2.1648,-3.1333,3.9935,1,0,1,5,163
-1.9844,-2.9739,-2.1648,3.8667,-0.0065185,0,0,1,5,164
-1.9844,-3.9739,1.8352,-3.1333,-0.0065185,0,0,1,5,165
-1.9844,-0.97389,-2.1648,-1.1333,-0.0065185,0,0,0,5,166
0.01555,-0.97389,-0.16481,-4.1333,-0.0065185,0,0,0,5,167
-0.98445,0.026113,-4.1648,1.8667,3.9935,1,0,1,5,168
-0.98445,-3.9739,-4.1648,-4.1333,-0.0065185,0,0,1,5,169
-1.9844,-0.97389,-2.1648,-1.1333,-0.0065185,0,0,1,5,170
-1.9844,0.026113,3.8352,-4.1333,-0.0065185,0,0,1,5,171
-1.9844,0.026113,-2.1648,-0.1333,4.9935,1,0,1,5,172
-1.9844,-3.9739,-2.1648,-4.1333,-0.0065185,0,0,1,5,173
-2.9844,-1.9739,4.8352,-2.1333,-0.0065185,0,0,0,5,174
-1.9844,-3.9739,3.8352,-4.1333,-0.0065185,0,0,1,5,175
-1.9844,-1.9739,-2.1648,-2.1333,-0.0065185,0,0,0,5,176
-1.9844,-0.97389,3.8352,-3.1333,-0.0065185,0,0,0,5,177
-0.98445,-1.9739,-1.1648,-2.1333,-0.0065185,0,0,0,5,178
-1.9844,-0.97389,-2.1648,-3.1333,2.9935,1,0,0,5,179
-0.98445,2.0261,2.8352,1.8667,-0.0065185,0,0,0,5,180
2.0156,3.0261,1.8352,-3.1333,-0.0065185,0,0,1,5,181
2.0156,4.0261,-2.1648,2.8667,-0.0065185,0,0,1,5,182
2.0156,2.0261,1.8352,3.8667,-0.0065185,0,0,1,5,183
2.0156,2.0261,1.8352,1.8667,-0.0065185,0,0,1,5,184
2.0156,2.0261,-2.1648,1.8667,-5.0065,1,0,0,5,185
2.0156,4.0261,1.8352,4.8667,-0.0065185,0,0,0,5,186
4.0156,3.0261,4.8352,1.8667,-0.0065185,0,0,1,5,187
0.01555,4.0261,2.8352,4.8667,-0.0065185,0,0,0,5,188
4.0156,-2.9739,3.8352,-0.1333,-0.0065185,0,0,0,5,189
4.0156,-2.9739,4.8352,-0.1333,-4.0065,1,0,1,5,190
4.0156,-2.9739,3.8352,-3.1333,-0.0065185,0,0,1,5,191
-2.9844,4.0261,-3.1648,4.8667,1.9935,1,0,0,5,192
-3.9844,4.0261,-4.1648,4.8667,-0.0065185,0,0,1,5,193
-3.9844,4.0261,-4.1648,3.8667,-0.0065185,0,0,0,5,194
4.0156,-2.9739,3.8352,-2.1333,-0.0065185,0,0,0,5,195
4.0156,-2.9739,3.8352,-3.1333,2.9935,1,0,0,5,196
-2.9844,2.0261,-3.1648,-3.1333,-0.0065185,0,0,1,5,197
2.0156,-2.9739,1.8352,-3.1333,1.9935,1,0,1,5,198
2.0156,0.026113,-2.1648,-2.1333,-0.0065185,0,0,1,5,199
2.0156,-0.97389,1.8352,-0.1333,-0.0065185,0,0,0,5,200
-0.98445,-0.97389,-2.1648,-1.1333,-0.0065185,0,0,1,5,201
-0.98445,-0.97389,-1.1648,-0.1333,-4.0065,1,0,1,5,202
-0.98445,1.0261,-2.1648,-4.1333,-0.0065185,0,0,1,5,203
-0.98445,2.0261,-1.1648,0.8667,-0.0065185,0,0,1,5,204
-0.98445,5.0261,-1.1648,4.8667,-0.0065185,0,0,0,5,205
5.0156,-0.97389,4.8352,-2.1333,2.9935,1,0,0,5,206
1.0156,-0.97389,0.83519,-2.1333,-0.0065185,0,0,0,5,207
-0.98445,0.026113,2.8352,-0.1333,-0.0065185,0,0,1,5,208
-0.98445,2.0261,2.8352,1.8667,-0.0065185,0,0,1,5,209
1.0156,-0.97389,0.83519,-2.1333,-0.0065185,0,0,0,5,210
-0.98445,0.026113,2.8352,1.8667,-0.0065185,0,0,1,5,211
-0.98445,-3.9739,-2.1648,-4.1333,-0.0065185,0,0,0,5,212
-3.9844,4.0261,-0.16481,3.8667,-0.0065185,0,0,1,5,213
4.0156,-3.9739,2.8352,-4.1333,2.9935,1,0,1,5,214
-3.9844,4.0261,-0.16481,-3.1333,-0.0065185,0,0,1,5,215
4.0156,-3.9739,2.8352,-4.1333,-0.0065185,0,0,0,5,216
5.0156,-3.9739,3.8352,-4.1333,-0.0065185,0,0,1,5,217
5.0156,0.026113,3.8352,-0.1333,-0.0065185,0,0,0,5,218
5.0156,0.026113,4.8352,-0.1333,3.9935,1,0,1,5,219
-2.9844,5.0261,-0.16481,-4.1333,-0.0065185,0,0,0,5,220
-2.9844,5.0261,-3.1648,-4.1333,-0.0065185,0,0,1,5,221
-2.9844,-0.97389,-3.1648,-1.1333,-0.0065185,0,0,1,5,222
-0.98445,-2.9739,4.8352,-3.1333,3.9935,1,0,1,5,223
-0.98445,1.0261,4.8352,-3.1333,-0.0065185,0,0,1,5,224
-0.98445,1.0261,4.8352,0.8667,-0.0065185,0,0,1,5,225
-0.98445,-0.97389,0.83519,-4.1333,-0.0065185,0,0,1,5,226
3.0156,-0.97389,4.8352,0.8667,-0.0065185,0,0,0,5,227
-0.98445,4.0261,0.83519,2.8667,-0.0065185,0,0,1,5,228
1.0156,-0.97389,3.8352,-1.1333,-0.0065185,0,0,0,5,229
1.0156,-0.97389,0.83519,-1.1333,3.9935,1,0,0,5,230
0.01555,-0.97389,-4.1648,0.8667,-0.0065185,0,0,0,5,231
-3.9844,-0.97389,-4.1648,-1.1333,-0.0065185,0,0,1,5,232
-3.9844,4.0261,-0.16481,3.8667,-0.0065185,0,0,0,5,233
-2.9844,4.0261,-4.1648,3.8667,-0.0065185,0,0,1,5,234
-2.9844,1.0261,-4.1648,0.8667,-0.0065185,0,0,0,5,235
1.0156,-3.9739,0.83519,-3.1333,-0.0065185,0,0,0,5,236
-3.9844,0.026113,-3.1648,0.8667,-0.0065185,0,0,1,5,237
-3.9844,1.0261,-4.1648,0.8667,-0.0065185,0,0,1,5,238
-3.9844,1.0261,-4.1648,-0.1333,-0.0065185,0,0,1,5,239
-2.9844,-3.9739,-3.1648,-3.1333,-0.0065185,0,0,1,5,240
-1.9844,-2.9739,-4.1648,-3.1333,-0.0065185,0,0,0,5,241
2.0156,-2.9739,-2.1648,0.8667,-0.0065185,0,0,0,5,242
-2.9844,1.0261,-3.1648,0.8667,-0.0065185,0,0,1,5,243
-2.9844,1.0261,-3.1648,0.8667,-0.0065185,0,0,1,5,244
1.0156,-2.9739,1.8352,-3.1333,-3.0065,1,0,1,5,245
1.0156,1.0261,0.83519,2.8667,-0.0065185,0,0,1,5,246
-2.9844,1.0261,1.8352,0.8667,-0.0065185,0,0,1,5,247
-2.9844,1.0261,1.8352,0.8667,-0.0065185,0,0,1,5,248
-2.9844,-0.97389,-3.1648,-1.1333,-0.0065185,0,0,1,5,249
-2.9844,2.0261,-3.1648,1.8667,-0.0065185,0,0,1,5,250
-1.9844,5.0261,-2.1648,1.8667,-0.0065185,0,0,0,6,76
2.0156,5.0261,1.8352,4.8667,-0.0065185,0,0,0,6,77
5.0156,4.0261,4.8352,-0.1333,-0.0065185,0,0,1,6,78
4.0156,5.0261,3.8352,1.8667,-0.0065185,0,0,0,6,79
1.0156,5.0261,3.8352,1.8667,-0.0065185,0,0,0,6,80
0.01555,5.0261,0.83519,4.8667,-0.0065185,0,0,1,6,81
0.01555,-1.9739,0.83519,-2.1333,-0.0065185,0,0,0,6,82
1.0156,-1.9739,0.83519,1.8667,-0.0065185,0,0,0,6,83
3.0156,-1.9739,2.8352,-2.1333,-0.0065185,0,0,0,6,84
5.0156,-1.9739,4.8352,-2.1333,-0.0065185,0,0,0,6,85
-1.9844,3.0261,-2.1648,-0.1333,-0.0065185,0,0,1,6,86
3.0156,-1.9739,2.8352,-2.1333,-0.0065185,0,0,0,6,87
3.0156,-1.9739,2.8352,1.8667,3.9935,1,0,1,6,88
3.0156,5.0261,2.8352,4.8667,-0.0065185,0,0,1,6,89
4.0156,3.0261,-2.1648,2.8667,-0.0065185,0,0,0,6,90
3.0156,4.0261,-4.1648,3.8667,-0.0065185,0,0,1,6,91
4.0156,3.0261,3.8352,2.8667,-0.0065185,0,0,0,6,92
3.0156,2.0261,-4.1648,1.8667,-0.0065185,0,0,1,6,93
3.0156,2.0261,-4.1648,3.8667,4.9935,1,0,1,6,94
3.0156,2.0261,-4.1648,1.8667,-0.0065185,0,0,0,6,95
-0.98445,2.0261,2.8352,1.8667,-0.0065185,0,0,1,6,96
-0.98445,1.0261,-1.1648,4.8667,-0.0065185,0,0,1,6,97
3.0156,-0.97389,2.8352,2.8667,-0.0065185,0,0,0,6,98
-0.98445,3.0261,2.8352,0.8667,2.9935,1,0,1,6,99
-0.98445,0.026113,-1.1648,2.8667,-0.0065185,0,0,1,6,100
3.0156,-0.97389,2.8352,2.8667,-0.0065185,0,0,0,6,101
2.0156,-0.97389,1.8352,2.8667,-0.0065185,0,0,1,6,102
2.0156,2.0261,-1.1648,-0.1333,-0.0065185,0,0,0,6,103
-0.98445,2.0261,-1.1648,1.8667,-0.0065185,0,0,1,6,104
2.0156,-0.97389,1.8352,1.8667,-0.0065185,0,0,0,6,105
-0.98445,2.0261,1.8352,-0.1333,2.9935,1,0,1,6,106
3.0156,-0.97389,2.8352,1.8667,-0.0065185,0,0,0,6,107
-0.98445,0.026113,1.8352,2.8667,-0.0065185,0,0,1,6,108
-0.98445,3.0261,-1.1648,-0.1333,-0.0065185,0,0,1,6,109
-0.98445,2.0261,-1.1648,2.8667,-0.0065185,0,0,1,6,110
-0.98445,0.026113,-1.1648,-0.1333,-0.0065185,0,0,0,6,111
-2.9844,0.026113,-3.1648,1.8667,-0.0065185,0,0,1,6,112
-0.98445,-2.9739,-1.1648,1.8667,-0.0065185,0,0,1,6,113
-0.98445,-0.97389,-3.1648,-1.1333,-0.0065185,0,0,0,6,114
-0.98445,-0.97389,-1.1648,-1.1333,-4.0065,1,0,0,6,115
-0.98445,1.0261,-1.1648,-0.1333,-0.0065185,0,0,1,6,116
-0.98445,-0.97389,-1.1648,-1.1333,-0.0065185,0,0,1,6,117
-0.98445,-2.9739,-4.1648,0.8667,-0.0065185,0,0,0,6,118
-2.9844,-0.97389,0.83519,-1.1333,-4.0065,1,0,1,6,119
-2.9844,-1.9739,0.83519,-2.1333,-0.0065185,0,0,1,6,120
-2.9844,-2.9739,0.83519,-3.1333,-0.0065185,0,0,0,6,121
-2.9844,2.0261,-3.1648,-3.1333,-0.0065185,0,0,1,6,122
5.0156,-2.9739,1.8352,-3.1333,-0.0065185,0,0,0,6,123
5.0156,-2.9739,4.8352,-3.1333,-0.0065185,0,0,0,6,124
-2.9844,5.0261,-4.1648,4.8667,-4.0065,1,0,1,6,125
-2.9844,2.0261,-4.1648,1.8667,-0.0065185,0,0,0,6,126
2.0156,-0.97389,-4.1648,-3.1333,-0.0065185,0,0,0,6,127
-0.98445,-0.97389,-1.1648,-1.1333,-0.0065185,0,0,1,6,128
-0.98445,-0.97389,-1.1648,-3.1333,-0.0065185,0,0,1,6,129
1.0156,-0.97389,-1.1648,1.8667,-0.0065185,0,0,0,6,130
-0.98445,0.026113,-1.1648,0.8667,-0.0065185,0,0,1,6,131
0.01555,-0.97389,-0.16481,1.8667,-5.0065,1,0,1,6,132
2.0156,0.026113,-1.1648,4.8667,-0.0065185,0,0,0,6,133
2.0156,0.026113,1.8352,4.8667,-0.0065185,0,0,0,6,134
0.01555,0.026113,-0.16481,-0.1333,-0.0065185,0,0,1,6,135
4.0156,0.026113,3.8352,4.8667,-0.0065185,0,0,0,6,136
0.01555,4.0261,4.8352,1.8667,3.9935,1,0,1,6,137
-0.98445,0.026113,3.8352,4.8667,-0.0065185,0,0,0,6,138
0.01555,-0.97389,4.8352,-1.1333,-2.0065,1,0,1,6,139
0.01555,-1.9739,4.8352,-2.1333,-0.0065185,0,0,0,6,140
-1.9844,-1.9739,-2.1648,-2.1333,-0.0065185,0,0,0,6,141
-0.98445,-1.9739,-1.1648,-2.1333,-0.0065185,0,0,0,6,142
0.01555,-1.9739,-0.16481,-2.1333,-0.0065185,0,0,0,6,143
-1.9844,-3.9739,-2.1648,-0.1333,-0.0065185,0,0,0,6,144
-3.9844,-1.9739,-4.1648,-2.1333,2.9935,1,0,1,6,145
-2.9844,-3.9739,2.8352,-0.1333,-0.0065185,0,0,1,6,146
-0.98445,-2.9739,-1.1648,-3.1333,-0.0065185,0,0,1,6,147
-0.98445,-0.97389,-1.1648,-1.1333,-0.0065185,0,0,0,6,148
0.01555,-0.97389,-4.1648,-1.1333,-0.0065185,0,0,0,6,149
0.01555,-0.97389,-0.16481,-1.1333,-3.0065,1,0,1,6,150
0.01555,0.026113,2.8352,2.8667,-0.0065185,0,0,0,6,151
0.01555,4.0261,2.8352,-0.1333,-0.0065185,0,0,1,6,152
3.0156,0.026113,3.8352,2.8667,-0.0065185,0,0,0,6,153
2.0156,0.026113,1.8352,2.8667,-0.0065185,0,0,0,6,154
3.0156,0.026113,2.8352,2.8667,-0.0065185,0,0,0,6,155
0.01555,3.0261,2.8352,2.8667,2.9935,1,0,1,6,156
0.01555,0.026113,-0.16481,-0.1333,-0.0065185,0,0,0,6,157
1.0156,0.026113,0.83519,-0.1333,-0.0065185,0,0,0,6,158
0.01555,0.026113,2.8352,-0.1333,-0.0065185,0,0,0,6,159
0.01555,0.026113,1.8352,2.8667,-0.0065185,0,0,0,6,160
-0.98445,0.026113,-0.16481,-0.1333,-0.0065185,0,0,1,6,161
-2.9844,-0.97389,2.8352,-0.1333,-0.0065185,0,0,0,6,162
-0.98445,-2.9739,-0.16481,-3.1333,3.9935,1,0,1,6,163
-2.9844,-0.97389,3.8352,-0.1333,-0.0065185,0,0,1,6,164
2.0156,-2.9739,-1.1648,3.8667,-0.0065185,0,0,0,6,165
2.0156,-2.9739,1.8352,-3.1333,-0.0065185,0,0,0,6,166
2.0156,-2.9739,1.8352,-3.1333,-0.0065185,0,0,0,6,167
2.0156,-2.9739,1.8352,-3.1333,-4.0065,1,0,0,6,168
3.0156,-2.9739,3.8352,3.8667,-0.0065185,0,0,0,6,169
-2.9844,3.0261,3.8352,2.8667,-0.0065185,0,0,1,6,170
3.0156,-2.9739,2.8352,-3.1333,-0.0065185,0,0,0,6,171
3.0156,-2.9739,2.8352,3.8667,-3.0065,1,0,0,6,172
0.01555,-2.9739,-0.16481,3.8667,-0.0065185,0,0,0,6,173
-2.9844,2.0261,3.8352,2.8667,-0.0065185,0,0,1,6,174
2.0156,-2.9739,1.8352,3.8667,-0.0065185,0,0,0,6,175
5.0156,-2.9739,1.8352,-3.1333,-0.0065185,0,0,0,6,176
-2.9844,4.0261,3.8352,3.8667,-0.0065185,0,0,1,6,177
4.0156,-2.9739,-2.1648,-3.1333,-0.0065185,0,0,0,6,178
4.0156,-2.9739,4.8352,3.8667,2.9935,1,0,1,6,179
4.0156,-1.9739,-3.1648,-3.1333,-0.0065185,0,0,1,6,180
-1.9844,4.0261,-2.1648,-3.1333,-0.0065185,0,0,0,6,181
4.0156,-2.9739,-3.1648,-2.1333,-0.0065185,0,0,0,6,182
-2.9844,4.0261,-3.1648,-3.1333,-0.0065185,0,0,1,6,183
4.0156,-2.9739,4.8352,-2.1333,3.9935,1,0,0,6,184
4.0156,-2.9739,-4.1648,-2.1333,3.9935,1,0,1,6,185
4.0156,-1.9739,-4.1648,-3.1333,-0.0065185,0,0,1,6,186
0.01555,4.0261,-0.16481,-4.1333,-0.0065185,0,0,0,6,187
4.0156,-1.9739,-4.1648,-2.1333,-0.0065185,0,0,0,6,188
1.0156,-1.9739,-4.1648,-2.1333,-0.0065185,0,0,0,6,189
1.0156,-1.9739,0.83519,-2.1333,3.9935,1,0,0,6,190
-1.9844,4.0261,-2.1648,-4.1333,-0.0065185,0,0,1,6,191
-1.9844,4.0261,-2.1648,3.8667,-0.0065185,0,0,1,6,192
0.01555,-1.9739,-0.16481,-2.1333,-0.0065185,0,0,0,6,193
-3.9844,-1.9739,-4.1648,-2.1333,-0.0065185,0,0,0,6,194
-2.9844,-1.9739,-3.1648,-2.1333,-0.0065185,0,0,1,6,195
-2.9844,3.0261,-3.1648,2.8667,-0.0065185,0,0,1,6,196
-2.9844,3.0261,-3.1648,2.8667,-0.0065185,0,0,1,6,197
3.0156,-2.9739,-2.1648,-3.1333,3.9935,1,0,0,6,198
-3.9844,-2.9739,-4.1648,-3.1333,-0.0065185,0,0,0,6,199
-2.9844,-2.9739,-3.1648,-3.1333,-0.0065185,0,0,1,6,200
-2.9844,-0.97389,-3.1648,-1.1333,-0.0065185,0,0,1,6,201
-0.98445,-2.9739,3.8352,-4.1333,3.9935,1,0,1,6,202
-0.98445,-0.97389,-4.1648,-1.1333,-0.0065185,0,0,1,6,203
-2.9844,-0.97389,-3.1648,-4.1333,-0.0065185,0,0,0,6,204
-0.98445,-2.9739,-4.1648,-3.1333,-1.0065,1,0,1,6,205
-2.9844,-0.97389,-1.1648,-4.1333,-3.0065,1,0,1,6,206
4.0156,-2.9739,3.8352,2.8667,-0.0065185,0,0,0,6,207
-2.9844,1.0261,-1.1648,3.8667,-0.0065185,0,0,1,6,208
1.0156,-2.9739,0.83519,2.8667,-0.0065185,0,0,0,6,209
1.0156,-2.9739,0.83519,2.8667,-0.0065185,0,0,0,6,210
1.0156,-2.9739,0.83519,-1.1333,-0.0065185,0,0,0,6,211
2.0156,-2.9739,1.8352,-1.1333,-0.0065185,0,0,0,6,212
-0.98445,-2.9739,-1.1648,2.8667,-0.0065185,0,0,1,6,213
-0.98445,-2.9739,-1.1648,-1.1333,-4.0065,1,0,0,6,214
3.0156,-2.9739,2.8352,-1.1333,-0.0065185,0,0,0,6,215
1.0156,-2.9739,0.83519,-4.1333,-0.0065185,0,0,0,6,216
-2.9844,-2.9739,0.83519,-4.1333,-0.0065185,0,0,1,6,217
-2.9844,-0.97389,0.83519,-1.1333,-0.0065185,0,0,1,6,218
-2.9844,-0.97389,-3.1648,-1.1333,-3.0065,1,0,1,6,219
-3.9844,-2.9739,-4.1648,0.8667,-0.0065185,0,0,1,6,220
-2.9844,-3.9739,-3.1648,-3.1333,-0.0065185,0,0,0,6,221
-3.9844,-2.9739,-4.1648,-3.1333,-0.0065185,0,0,0,6,222
-2.9844,-3.9739,-3.1648,-3.1333,2.9935,1,0,1,6,223
0.01555,-2.9739,2.8352,-3.1333,-0.0065185,0,0,0,6,224
-2.9844,1.0261,-3.1648,-0.1333,-0.0065185,0,0,1,6,225
-2.9844,-2.9739,-3.1648,-3.1333,-0.0065185,0,0,1,6,226
-2.9844,-2.9739,0.83519,-3.1333,-0.0065185,0,0,0,6,227
-2.9844,-2.9739,-3.1648,-3.1333,-0.0065185,0,0,0,6,228
5.0156,-2.9739,4.8352,-3.1333,-0.0065185,0,0,0,6,229
5.0156,-2.9739,-3.1648,-3.1333,-5.0065,1,0,0,6,230
-2.9844,4.0261,-3.1648,4.8667,-0.0065185,0,0,1,6,231
4.0156,-2.9739,3.8352,-3.1333,-0.0065185,0,0,0,6,232
-2.9844,4.0261,-3.1648,3.8667,-0.0065185,0,0,1,6,233
3.0156,-2.9739,3.8352,-3.1333,-0.0065185,0,0,0,6,234
4.0156,-2.9739,3.8352,-3.1333,-0.0065185,0,0,0,6,235
-2.9844,1.0261,-3.1648,2.8667,-0.0065185,0,0,1,6,236
3.0156,-2.9739,0.83519,-3.1333,-0.0065185,0,0,0,6,237
-2.9844,1.0261,-3.1648,2.8667,-0.0065185,0,0,1,6,238
4.0156,-2.9739,0.83519,-3.1333,-0.0065185,0,0,0,6,239
5.0156,-2.9739,3.8352,-3.1333,-0.0065185,0,0,0,6,240
4.0156,-2.9739,3.8352,-3.1333,-0.0065185,0,0,0,6,241
5.0156,-2.9739,4.8352,-3.1333,-0.0065185,0,0,0,6,242
5.0156,-2.9739,4.8352,-3.1333,-0.0065185,0,0,0,6,243
1.0156,-2.9739,0.83519,-3.1333,-0.0065185,0,0,0,6,244
-2.9844,1.0261,-3.1648,4.8667,-2.0065,1,0,1,6,245
-2.9844,1.0261,-3.1648,0.8667,-0.0065185,0,0,1,6,246
1.0156,-2.9739,0.83519,-3.1333,-0.0065185,0,0,0,6,247
-2.9844,4.0261,-3.1648,3.8667,-0.0065185,0,0,1,6,248
4.0156,-2.9739,3.8352,-3.1333,-0.0065185,0,0,0,6,249
-2.9844,4.0261,-3.1648,3.8667,-0.0065185,0,0,1,6,250
3.0156,5.0261,-0.16481,1.8667,-0.0065185,0,0,0,7,76
5.0156,-2.9739,4.8352,-3.1333,-0.0065185,0,0,1,7,77
1.0156,5.0261,2.8352,4.8667,-0.0065185,0,0,0,7,78
0.01555,5.0261,-0.16481,4.8667,-0.0065185,0,0,1,7,79
0.01555,-3.9739,0.83519,1.8667,-0.0065185,0,0,1,7,80
0.01555,-3.9739,-0.16481,-4.1333,-0.0065185,0,0,1,7,81
0.01555,-2.9739,-0.16481,-3.1333,-0.0065185,0,0,0,7,82
-2.9844,2.0261,-4.1648,0.8667,-0.0065185,0,0,1,7,83
3.0156,-2.9739,1.8352,-4.1333,-0.0065185,0,0,0,7,84
4.0156,-2.9739,3.8352,-4.1333,-0.0065185,0,0,1,7,85
-0.98445,4.0261,-1.1648,2.8667,-0.0065185,0,0,0,7,86
4.0156,-2.9739,3.8352,-3.1333,-0.0065185,0,0,0,7,87
-2.9844,4.0261,-3.1648,2.8667,3.9935,1,0,1,7,88
-0.98445,-2.9739,-1.1648,-3.1333,-0.0065185,0,0,0,7,89
-2.9844,1.0261,-3.1648,0.8667,-0.0065185,0,0,1,7,90
-0.98445,-2.9739,-1.1648,-3.1333,-0.0065185,0,0,1,7,91
-0.98445,3.0261,3.8352,2.8667,-0.0065185,0,0,1,7,92
2.0156,-0.97389,-3.1648,-1.1333,-0.0065185,0,0,0,7,93
-0.98445,2.0261,-1.1648,1.8667,-4.0065,1,0,0,7,94
3.0156,2.0261,3.8352,1.8667,-0.0065185,0,0,0,7,95
2.0156,2.0261,2.8352,1.8667,-0.0065185,0,0,0,7,96
2.0156,4.0261,-4.1648,3.8667,-0.0065185,0,0,1,7,97
2.0156,3.0261,-4.1648,2.8667,-0.0065185,0,0,1,7,98
3.0156,2.0261,1.8352,-4.1333,3.9935,1,0,0,7,99
2.0156,0.026113,-4.1648,-4.1333,-0.0065185,0,0,0,7,100
0.01555,1.0261,-0.16481,0.8667,-0.0065185,0,0,1,7,101
0.01555,1.0261,-4.1648,1.8667,-0.0065185,0,0,1,7,102
0.01555,1.0261,-4.1648,0.8667,-0.0065185,0,0,1,7,103
0.01555,2.0261,-4.1648,1.8667,-0.0065185,0,0,1,7,104
1.0156,0.026113,0.83519,-4.1333,-0.0065185,0,0,1,7,105
0.01555,1.0261,-0.16481,0.8667,3.9935,1,0,1,7,106
0.01555,0.026113,-4.1648,-0.1333,-0.0065185,0,0,1,7,107
0.01555,3.0261,-0.16481,0.8667,-0.0065185,0,0,0,7,108
2.0156,3.0261,-4.1648,2.8667,-0.0065185,0,0,1,7,109
2.0156,-1.9739,-4.1648,-2.1333,-0.0065185,0,0,1,7,110
-0.98445,2.0261,0.83519,-4.1333,-0.0065185,0,0,1,7,111
-0.98445,4.0261,0.83519,3.8667,-0.0065185,0,0,1,7,112
-0.98445,4.0261,0.83519,3.8667,-0.0065185,0,0,1,7,113
4.0156,-0.97389,3.8352,-1.1333,-0.0065185,0,0,1,7,114
4.0156,-0.97389,1.8352,0.8667,-2.0065,1,0,0,7,115
-0.98445,1.0261,0.83519,3.8667,-0.0065185,0,0,1,7,116
-0.98445,0.026113,0.83519,-0.1333,-0.0065185,0,0,1,7,117
2.0156,-0.97389,1.8352,-2.1333,-0.0065185,0,0,0,7,118
2.0156,-0.97389,0.83519,0.8667,2.9935,1,0,0,7,119
3.0156,-0.97389,2.8352,0.8667,-0.0065185,0,0,0,7,120
3.0156,-0.97389,-3.1648,-2.1333,-0.0065185,0,0,1,7,121
3.0156,2.0261,2.8352,0.8667,-0.0065185,0,0,1,7,122
3.0156,4.0261,-3.1648,1.8667,-0.0065185,0,0,1,7,123
3.0156,3.0261,-3.1648,2.8667,-0.0065185,0,0,0,7,124
3.0156,3.0261,2.8352,2.8667,-5.0065,1,0,1,7,125
3.0156,-0.97389,4.8352,-1.1333,-0.0065185,0,0,0,7,126
1.0156,-0.97389,0.83519,-1.1333,-0.0065185,0,0,0,7,127
-0.98445,2.0261,3.8352,1.8667,-0.0065185,0,0,0,7,128
2.0156,-0.97389,2.8352,-1.1333,-0.0065185,0,0,0,7,129
-0.98445,-1.9739,-1.1648,1.8667,-0.0065185,0,0,0,7,130
-1.9844,2.0261,1.8352,-1.1333,-0.0065185,0,0,1,7,131
2.0156,-1.9739,1.8352,1.8667,-5.0065,1,0,1,7,132
2.0156,3.0261,1.8352,2.8667,-0.0065185,0,0,1,7,133
2.0156,3.0261,1.8352,3.8667,-0.0065185,0,0,1,7,134
2.0156,4.0261,1.8352,3.8667,-0.0065185,0,0,1,7,135
2.0156,4.0261,1.8352,3.8667,-0.0065185,0,0,0,7,136
4.0156,-0.97389,-2.1648,-1.1333,-0.0065185,0,0,0,7,137
5.0156,-0.97389,4.8352,-1.1333,-0.0065185,0,0,0,7,138
-0.98445,5.0261,-1.1648,3.8667,-2.0065,1,0,1,7,139
2.0156,-0.97389,-2.1648,-1.1333,-0.0065185,0,0,1,7,140
2.0156,2.0261,1.8352,4.8667,-0.0065185,0,0,0,7,141
2.0156,4.0261,1.8352,3.8667,-0.0065185,0,0,1,7,142
4.0156,2.0261,3.8352,4.8667,-0.0065185,0,0,0,7,143
2.0156,3.0261,1.8352,2.8667,-0.0065185,0,0,1,7,144
3.0156,2.0261,-2.1648,4.8667,1.9935,1,0,0,7,145
2.0156,1.0261,1.8352,-2.1333,-0.0065185,0,0,0,7,146
1.0156,2.0261,0.83519,1.8667,-0.0065185,0,0,1,7,147
1.0156,5.0261,-2.1648,4.8667,-0.0065185,0,0,0,7,148
5.0156,4.0261,4.8352,3.8667,-0.0065185,0,0,1,7,149
4.0156,5.0261,0.83519,4.8667,1.9935,1,0,1,7,150
3.0156,4.0261,4.8352,-2.1333,-0.0065185,0,0,1,7,151
3.0156,4.0261,4.8352,3.8667,-0.0065185,0,0,1,7,152
4.0156,3.0261,0.83519,2.8667,-2.0065,1,0,0,7,153
3.0156,3.0261,1.8352,2.8667,-0.0065185,0,0,1,7,154
-1.9844,3.0261,4.8352,1.8667,-0.0065185,0,0,1,7,155
3.0156,-1.9739,2.8352,-2.1333,-5.0065,1,0,0,7,156
-1.9844,4.0261,4.8352,4.8667,-0.0065185,0,0,1,7,157
3.0156,-1.9739,3.8352,-2.1333,-0.0065185,0,0,1,7,158
3.0156,-3.9739,2.8352,-4.1333,-0.0065185,0,0,0,7,159
-3.9844,4.0261,4.8352,3.8667,-0.0065185,0,0,0,7,160
4.0156,-1.9739,3.8352,-2.1333,-0.0065185,0,0,1,7,161
4.0156,-0.97389,3.8352,-4.1333,-0.0065185,0,0,1,7,162
4.0156,-0.97389,3.8352,-1.1333,-4.0065,1,0,0,7,163
-0.98445,-0.97389,3.8352,-4.1333,-0.0065185,0,0,1,7,164
-0.98445,-3.9739,-1.1648,-4.1333,-0.0065185,0,0,0,7,165
-3.9844,1.0261,-1.1648,3.8667,-0.0065185,0,0,1,7,166
1.0156,-3.9739,0.83519,-4.1333,-0.0065185,0,0,1,7,167
1.0156,-3.9739,0.83519,-1.1333,-4.0065,1,0,0,7,168
0.01555,-3.9739,0.83519,-4.1333,-0.0065185,0,0,1,7,169
-2.9844,0.026113,-1.1648,0.8667,-0.0065185,0,0,1,7,170
-2.9844,-2.9739,-1.1648,-3.1333,-0.0065185,0,0,1,7,171
-2.9844,-2.9739,-0.16481,-1.1333,3.9935,1,0,1,7,172
-2.9844,-2.9739,-0.16481,-3.1333,-0.0065185,0,0,0,7,173
-0.98445,-2.9739,-1.1648,-3.1333,-0.0065185,0,0,1,7,174
-0.98445,-0.97389,-1.1648,-4.1333,-0.0065185,0,0,1,7,175
1.0156,-0.97389,-1.1648,-1.1333,-0.0065185,0,0,1,7,176
-2.9844,1.0261,-3.1648,0.8667,-0.0065185,0,0,0,7,177
1.0156,-2.9739,-1.1648,-3.1333,-0.0065185,0,0,1,7,178
1.0156,-2.9739,-1.1648,-3.1333,-3.0065,1,0,0,7,179
-2.9844,2.0261,-3.1648,0.8667,-0.0065185,0,0,1,7,180
4.0156,-2.9739,3.8352,-3.1333,-0.0065185,0,0,0,7,181
4.0156,-2.9739,3.8352,-3.1333,-0.0065185,0,0,1,7,182
4.0156,-1.9739,3.8352,-2.1333,-0.0065185,0,0,0,7,183
-0.98445,-1.9739,1.8352,-2.1333,-0.0065185,0,0,0,7,184
-1.9844,-0.97389,-3.1648,-1.1333,4.9935,1,0,1,7,185
0.01555,-1.9739,-0.16481,-2.1333,-0.0065185,0,0,1,7,186
0.01555,4.0261,-0.16481,3.8667,-0.0065185,0,0,1,7,187
0.01555,5.0261,4.8352,-3.1333,-0.0065185,0,0,0,7,188
-3.9844,5.0261,-0.16481,4.8667,-0.0065185,0,0,1,7,189
5.0156,-3.9739,-3.1648,-0.1333,3.9935,1,0,1,7,190
3.0156,5.0261,2.8352,-4.1333,-0.0065185,0,0,0,7,191
5.0156,3.0261,-3.1648,2.8667,-0.0065185,0,0,1,7,192
5.0156,0.026113,-3.1648,-0.1333,-0.0065185,0,0,1,7,193
5.0156,2.0261,-3.1648,1.8667,-0.0065185,0,0,0,7,194
1.0156,2.0261,0.83519,1.8667,-0.0065185,0,0,1,7,195
1.0156,-2.9739,0.83519,-3.1333,-0.0065185,0,0,0,7,196
2.0156,-2.9739,1.8352,-3.1333,-0.0065185,0,0,0,7,197
-2.9844,2.0261,-3.1648,-4.1333,-4.0065,1,0,0,7,198
2.0156,0.026113,-4.1648,-0.1333,-0.0065185,0,0,1,7,199
2.0156,0.026113,-4.1648,-0.1333,-0.0065185,0,0,1,7,200
0.01555,2.0261,-0.16481,-4.1333,-0.0065185,0,0,1,7,201
2.0156,0.026113,-4.1648,-0.1333,3.9935,1,0,1,7,202
2.0156,4.0261,-4.1648,3.8667,-0.0065185,0,0,1,7,203
5.0156,2.0261,-4.1648,-4.1333,-0.0065185,0,0,0,7,204
2.0156,4.0261,-4.1648,4.8667,-0.0065185,0,0,0,7,205
4.0156,2.0261,3.8352,-4.1333,4.9935,1,0,1,7,206
4.0156,3.0261,4.8352,2.8667,-0.0065185,0,0,1,7,207
1.0156,4.0261,4.8352,4.8667,-0.0065185,0,0,1,7,208
-2.9844,1.0261,-3.1648,0.8667,-0.0065185,0,0,1,7,209
-2.9844,-0.97389,3.8352,4.8667,-0.0065185,0,0,0,7,210
-3.9844,-0.97389,-3.1648,-1.1333,-0.0065185,0,0,1,7,211
-3.9844,0.026113,-3.1648,-0.1333,-0.0065185,0,0,1,7,212
0.01555,-3.9739,4.8352,-3.1333,-0.0065185,0,0,0,7,213
-3.9844,0.026113,-3.1648,-0.1333,4.9935,1,0,0,7,214
0.01555,2.0261,4.8352,1.8667,-0.0065185,0,0,1,7,215
0.01555,3.0261,4.8352,2.8667,-0.0065185,0,0,1,7,216
3.0156,0.026113,2.8352,-0.1333,-0.0065185,0,0,0,7,217
4.0156,0.026113,3.8352,-0.1333,-0.0065185,0,0,1,7,218
0.01555,4.0261,4.8352,3.8667,3.9935,1,0,0,7,219
2.0156,4.0261,1.8352,3.8667,-0.0065185,0,0,0,7,220
4.0156,1.0261,3.8352,-4.1333,-0.0065185,0,0,0,7,221
-0.98445,1.0261,-4.1648,-4.1333,-0.0065185,0,0,0,7,222
-0.98445,1.0261,-1.1648,-4.1333,-3.0065,1,0,0,7,223
-2.9844,1.0261,2.8352,0.8667,-0.0065185,0,0,0,7,224
-0.98445,1.0261,-3.1648,-4.1333,-0.0065185,0,0,0,7,225
1.0156,-1.9739,0.83519,-2.1333,-0.0065185,0,0,0,7,226
-1.9844,4.0261,-1.1648,3.8667,-0.0065185,0,0,1,7,227
-1.9844,5.0261,-1.1648,4.8667,-0.0065185,0,0,1,7,228
3.0156,-1.9739,2.8352,-2.1333,-0.0065185,0,0,0,7,229
-1.9844,3.0261,-1.1648,-4.1333,3.9935,1,0,0,7,230
3.0156,-2.9739,3.8352,-2.1333,-0.0065185,0,0,1,7,231
-3.9844,3.0261,-4.1648,-4.1333,-0.0065185,0,0,1,7,232
-0.98445,-3.9739,3.8352,-4.1333,-0.0065185,0,0,0,7,233
-3.9844,-0.97389,-3.1648,-1.1333,-0.0065185,0,0,1,7,234
-3.9844,-0.97389,-4.1648,-1.1333,-0.0065185,0,0,0,7,235
1.0156,-0.97389,-3.1648,-1.1333,-0.0065185,0,0,0,7,236
1.0156,-0.97389,0.83519,-1.1333,-0.0065185,0,0,1,7,237
1.0156,-2.9739,0.83519,-3.1333,-0.0065185,0,0,0,7,238
-2.9844,-2.9739,-1.1648,-3.1333,-0.0065185,0,0,0,7,239
-2.9844,-0.97389,0.83519,-3.1333,-0.0065185,0,0,0,7,240
-3.9844,-0.97389,-4.1648,-1.1333,-0.0065185,0,0,0,7,241
-0.98445,-0.97389,-1.1648,-3.1333,-0.0065185,0,0,1,7,242
-1.9844,-0.97389,-2.1648,-3.1333,-0.0065185,0,0,0,7,243
-0.98445,-0.97389,-1.1648,-1.1333,-0.0065185,0,0,1,7,244
-0.98445,-0.97389,-1.1648,-3.1333,-5.0065,1,0,0,7,245
-0.98445,0.026113,-1.1648,4.8667,-0.0065185,0,0,0,7,246
0.01555,-2.9739,-0.16481,-3.1333,-0.0065185,0,0,1,7,247
0.01555,-0.97389,-0.16481,-1.1333,-0.0065185,0,0,0,7,248
-0.98445,-3.9739,-1.1648,4.8667,-0.0065185,0,0,0,7,249
-3.9844,-1.9739,4.8352,-3.1333,-0.0065185,0,0,1,7,250
0.01555,-1.9739,-0.16481,-1.1333,-0.0065185,0,0,0,11,76
-1.9844,4.0261,-2.1648,3.8667,-0.0065185,0,0,1,11,77
4.0156,-1.9739,3.8352,-1.1333,-0.0065185,0,0,0,11,78
-1.9844,2.0261,-1.1648,2.8667,-0.0065185,0,0,1,11,79
2.0156,-1.9739,1.8352,-1.1333,-0.0065185,0,0,0,11,80
-1.9844,4.0261,-2.1648,3.8667,-0.0065185,0,0,1,11,81
-1.9844,1.0261,-2.1648,0.8667,-0.0065185,0,0,1,11,82
0.01555,-1.9739,-0.16481,-1.1333,-0.0065185,0,0,0,11,83
0.01555,-1.9739,-0.16481,-1.1333,-0.0065185,0,0,0,11,84
-1.9844,0.026113,-2.1648,-0.1333,-0.0065185,0,0,0,11,85
0.01555,-0.97389,-0.16481,-1.1333,-0.0065185,0,0,0,11,86
2.0156,-0.97389,1.8352,-1.1333,-0.0065185,0,0,0,11,87
-0.98445,2.0261,-1.1648,1.8667,4.9935,1,0,1,11,88
-0.98445,-1.9739,-1.1648,-2.1333,-0.0065185,0,0,1,11,89
-0.98445,-1.9739,-1.1648,-2.1333,-0.0065185,0,0,1,11,90
-0.98445,-0.97389,-1.1648,4.8667,-0.0065185,0,0,0,11,91
-0.98445,-1.9739,4.8352,-1.1333,-0.0065185,0,0,1,11,92
2.0156,-0.97389,-2.1648,-1.1333,-0.0065185,0,0,0,11,93
2.0156,-0.97389,1.8352,-1.1333,-5.0065,1,0,0,11,94
-0.98445,1.0261,4.8352,0.8667,-0.0065185,0,0,1,11,95
-0.98445,2.0261,4.8352,1.8667,-0.0065185,0,0,1,11,96
4.0156,-0.97389,3.8352,-1.1333,-0.0065185,0,0,0,11,97
0.01555,-0.97389,4.8352,4.8667,-0.0065185,0,0,0,11,98
0.01555,-0.97389,-0.16481,-1.1333,3.9935,1,0,1,11,99
0.01555,0.026113,4.8352,-0.1333,-0.0065185,0,0,0,11,100
0.01555,0.026113,-4.1648,-0.1333,-0.0065185,0,0,1,11,101
0.01555,-0.97389,-0.16481,-0.1333,-0.0065185,0,0,0,11,102
-0.98445,5.0261,-1.1648,4.8667,-0.0065185,0,0,1,11,103
3.0156,-0.97389,-4.1648,-0.1333,-0.0065185,0,0,0,11,104
2.0156,-0.97389,2.8352,-0.1333,-0.0065185,0,0,0,11,105
2.0156,-0.97389,1.8352,-0.1333,3.9935,1,0,1,11,106
-1.9844,2.0261,-1.1648,-4.1333,-0.0065185,0,0,0,11,107
0.01555,2.0261,-0.16481,-4.1333,-0.0065185,0,0,0,11,108
2.0156,1.0261,1.8352,0.8667,-0.0065185,0,0,1,11,109
4.0156,2.0261,3.8352,-4.1333,-0.0065185,0,0,0,11,110
2.0156,3.0261,1.8352,2.8667,-0.0065185,0,0,1,11,111
1.0156,2.0261,0.83519,-4.1333,-0.0065185,0,0,0,11,112
2.0156,2.0261,1.8352,-4.1333,-0.0065185,0,0,1,11,113
-2.9844,2.0261,1.8352,1.8667,-0.0065185,0,0,1,11,114
-2.9844,2.0261,-3.1648,-2.1333,-4.0065,1,0,1,11,115
-2.9844,-0.97389,1.8352,-4.1333,-0.0065185,0,0,1,11,116
-1.9844,-2.9739,-2.1648,-3.1333,-0.0065185,0,0,1,11,117
-1.9844,-3.9739,-2.1648,-4.1333,-0.0065185,0,0,0,11,118
-3.9844,-1.9739,-4.1648,-1.1333,4.9935,1,0,1,11,119
-3.9844,0.026113,-4.1648,-0.1333,-0.0065185,0,0,1,11,120
-3.9844,2.0261,-4.1648,1.8667,-0.0065185,0,0,1,11,121
-3.9844,-0.97389,1.8352,-1.1333,-0.0065185,0,0,1,11,122
1.0156,-3.9739,4.8352,-4.1333,-0.0065185,0,0,0,11,123
-3.9844,-1.9739,-4.1648,0.8667,-0.0065185,0,0,1,11,124
-1.9844,-3.9739,-2.1648,-4.1333,-3.0065,1,0,0,11,125
-2.9844,-3.9739,-3.1648,-4.1333,-0.0065185,0,0,0,11,126
-3.9844,0.026113,1.8352,-0.1333,-0.0065185,0,0,1,11,127
-3.9844,-0.97389,1.8352,-1.1333,-0.0065185,0,0,0,11,128
2.0156,-0.97389,1.8352,2.8667,-0.0065185,0,0,0,11,129
-0.98445,2.0261,-1.1648,-4.1333,-0.0065185,0,0,1,11,130
3.0156,-0.97389,1.8352,-1.1333,-0.0065185,0,0,0,11,131
-0.98445,3.0261,-1.1648,2.8667,-4.0065,1,0,1,11,132
0.01555,-0.97389,-4.1648,2.8667,-0.0065185,0,0,0,11,133
-0.98445,1.0261,-1.1648,-0.1333,-0.0065185,0,0,1,11,134
-0.98445,3.0261,-1.1648,2.8667,-0.0065185,0,0,1,11,135
-0.98445,4.0261,-1.1648,3.8667,-0.0065185,0,0,1,11,136
2.0156,-0.97389,1.8352,2.8667,-0.0065185,0,0,0,11,137
-0.98445,2.0261,-1.1648,1.8667,-0.0065185,0,0,1,11,138
2.0156,-0.97389,0.83519,-1.1333,-3.0065,1,0,0,11,139
1.0156,-0.97389,2.8352,2.8667,-0.0065185,0,0,0,11,140
-0.98445,4.0261,-1.1648,3.8667,-0.0065185,0,0,1,11,141
-0.98445,3.0261,-1.1648,2.8667,-0.0065185,0,0,1,11,142
3.0156,-0.97389,3.8352,2.8667,-0.0065185,0,0,0,11,143
2.0156,-0.97389,1.8352,2.8667,-0.0065185,0,0,0,11,144
2.0156,-0.97389,0.83519,2.8667,-3.0065,1,0,0,11,145
0.01555,-0.97389,-0.16481,-1.1333,-0.0065185,0,0,0,11,146
-0.98445,-0.97389,-1.1648,2.8667,-0.0065185,0,0,1,11,147
3.0156,-0.97389,-1.1648,-1.1333,-0.0065185,0,0,0,11,148
1.0156,-0.97389,2.8352,2.8667,-0.0065185,0,0,0,11,149
1.0156,-0.97389,0.83519,2.8667,-3.0065,1,0,0,11,150
2.0156,-0.97389,1.8352,2.8667,-0.0065185,0,0,0,11,151
-0.98445,0.026113,-1.1648,2.8667,-0.0065185,0,0,1,11,152
-0.98445,0.026113,-1.1648,-0.1333,-0.0065185,0,0,1,11,153
-3.9844,-0.97389,-0.16481,2.8667,-0.0065185,0,0,0,11,154
-2.9844,-0.97389,-3.1648,2.8667,-0.0065185,0,0,0,11,155
-0.98445,-2.9739,-1.1648,-4.1333,-4.0065,1,0,1,11,156
-1.9844,-0.97389,-4.1648,2.8667,-0.0065185,0,0,1,11,157
3.0156,-1.9739,-1.1648,-2.1333,-0.0065185,0,0,0,11,158
-1.9844,5.0261,-2.1648,2.8667,-0.0065185,0,0,1,11,159
-1.9844,3.0261,-4.1648,4.8667,-0.0065185,0,0,1,11,160
-1.9844,5.0261,-4.1648,4.8667,-0.0065185,0,0,1,11,161
4.0156,-1.9739,3.8352,-2.1333,-0.0065185,0,0,0,11,162
-1.9844,4.0261,-4.1648,2.8667,-4.0065,1,0,0,11,163
1.0156,4.0261,0.83519,-4.1333,-0.0065185,0,0,0,11,164
4.0156,-0.97389,-4.1648,-2.1333,-0.0065185,0,0,1,11,165
-0.98445,4.0261,-1.1648,2.8667,-0.0065185,0,0,0,11,166
-1.9844,4.0261,-2.1648,-4.1333,-0.0065185,0,0,1,11,167
-1.9844,4.0261,-2.1648,2.8667,2.9935,1,0,1,11,168
-1.9844,4.0261,-2.1648,3.8667,-0.0065185,0,0,1,11,169
4.0156,-1.9739,2.8352,-1.1333,-0.0065185,0,0,0,11,170
-0.98445,-1.9739,-1.1648,-1.1333,-0.0065185,0,0,0,11,171
-1.9844,-0.97389,-1.1648,3.8667,4.9935,1,0,1,11,172
-1.9844,-2.9739,-2.1648,4.8667,-0.0065185,0,0,1,11,173
-2.9844,-1.9739,-3.1648,-1.1333,-0.0065185,0,0,0,11,174
-1.9844,-1.9739,-2.1648,-1.1333,-0.0065185,0,0,1,11,175
-2.9844,-1.9739,-3.1648,-3.1333,-0.0065185,0,0,1,11,176
1.0156,-2.9739,-2.1648,-3.1333,-0.0065185,0,0,0,11,177
-2.9844,-0.97389,-2.1648,-1.1333,-0.0065185,0,0,0,11,178
-2.9844,-0.97389,-3.1648,0.8667,3.9935,1,0,1,11,179
-2.9844,-1.9739,-4.1648,-2.1333,-0.0065185,0,0,0,11,180
-3.9844,-1.9739,-3.1648,-2.1333,-0.0065185,0,0,0,11,181
-2.9844,-1.9739,-4.1648,-1.1333,-0.0065185,0,0,0,11,182
-1.9844,-1.9739,-2.1648,-2.1333,-0.0065185,0,0,1,11,183
-1.9844,-2.9739,-3.1648,-3.1333,-0.0065185,0,0,0,11,184
-1.9844,-2.9739,-2.1648,-3.1333,1.9935,1,0,1,11,185
-1.9844,-1.9739,-1.1648,-2.1333,-0.0065185,0,0,0,11,186
0.01555,-1.9739,-0.16481,-2.1333,-0.0065185,0,0,0,11,187
-1.9844,-1.9739,-2.1648,-2.1333,-0.0065185,0,0,0,11,188
-1.9844,2.0261,-2.1648,-2.1333,-0.0065185,0,0,1,11,189
2.0156,-1.9739,1.8352,-2.1333,-5.0065,1,0,0,11,190
-1.9844,-1.9739,-2.1648,4.8667,-0.0065185,0,0,1,11,191
-2.9844,-1.9739,-2.1648,-2.1333,-0.0065185,0,0,1,11,192
-1.9844,-2.9739,-2.1648,-3.1333,-0.0065185,0,0,0,11,193
-2.9844,-3.9739,-3.1648,-2.1333,-0.0065185,0,0,0,11,194
0.01555,-3.9739,-0.16481,-2.1333,-0.0065185,0,0,0,11,195
0.01555,-3.9739,-2.1648,-2.1333,-0.0065185,0,0,0,11,196
-3.9844,1.0261,-4.1648,-0.1333,-0.0065185,0,0,1,11,197
1.0156,-3.9739,0.83519,-4.1333,-5.0065,1,0,0,11,198
5.0156,-3.9739,4.8352,-4.1333,-0.0065185,0,0,0,11,199
-3.9844,4.0261,-4.1648,4.8667,-0.0065185,0,0,1,11,200
-3.9844,2.0261,-4.1648,1.8667,-0.0065185,0,0,1,11,201
2.0156,-3.9739,3.8352,-4.1333,-5.0065,1,0,0,11,202
-3.9844,3.0261,-4.1648,4.8667,-0.0065185,0,0,1,11,203
1.0156,-3.9739,2.8352,-2.1333,-0.0065185,0,0,0,11,204
-3.9844,4.0261,-4.1648,0.8667,-0.0065185,0,0,1,11,205
4.0156,-3.9739,3.8352,-2.1333,-5.0065,1,0,0,11,206
-3.9844,4.0261,-4.1648,4.8667,-0.0065185,0,0,1,11,207
2.0156,-3.9739,3.8352,-4.1333,-0.0065185,0,0,0,11,208
-1.9844,-3.9739,-2.1648,-2.1333,-0.0065185,0,0,1,11,209
-1.9844,3.0261,-2.1648,-4.1333,-0.0065185,0,0,1,11,210
3.0156,-1.9739,2.8352,1.8667,-0.0065185,0,0,0,11,211
-1.9844,3.0261,-2.1648,2.8667,-0.0065185,0,0,1,11,212
-1.9844,2.0261,1.8352,2.8667,-0.0065185,0,0,1,11,213
-1.9844,2.0261,-2.1648,1.8667,-3.0065,1,0,0,11,214
5.0156,2.0261,1.8352,-3.1333,-0.0065185,0,0,0,11,215
3.0156,2.0261,4.8352,-3.1333,-0.0065185,0,0,0,11,216
1.0156,2.0261,0.83519,1.8667,-0.0065185,0,0,0,11,217
0.01555,2.0261,-0.16481,1.8667,-0.0065185,0,0,0,11,218
2.0156,0.026113,1.8352,2.8667,-4.0065,1,0,0,11,219
0.01555,1.0261,-4.1648,0.8667,-0.0065185,0,0,1,11,220
0.01555,0.026113,-4.1648,-3.1333,-0.0065185,0,0,1,11,221
2.0156,0.026113,-0.16481,2.8667,-0.0065185,0,0,0,11,222
0.01555,2.0261,-4.1648,1.8667,-4.0065,1,0,1,11,223
-2.9844,0.026113,-4.1648,2.8667,-0.0065185,0,0,1,11,224
-0.98445,-2.9739,-4.1648,-4.1333,-0.0065185,0,0,0,11,225
-2.9844,-0.97389,-4.1648,-1.1333,-0.0065185,0,0,1,11,226
-0.98445,-2.9739,-1.1648,-3.1333,-0.0065185,0,0,1,11,227
-0.98445,-3.9739,-1.1648,-4.1333,-0.0065185,0,0,0,11,228
-1.9844,-3.9739,-2.1648,-4.1333,-0.0065185,0,0,1,11,229
-1.9844,-3.9739,-1.1648,-4.1333,-4.0065,1,0,0,11,230
-3.9844,0.026113,-4.1648,-0.1333,-0.0065185,0,0,1,11,231
5.0156,-3.9739,-2.1648,-4.1333,-0.0065185,0,0,0,11,232
4.0156,-3.9739,3.8352,-4.1333,-0.0065185,0,0,0,11,233
4.0156,-3.9739,4.8352,-4.1333,-0.0065185,0,0,0,11,234
4.0156,-3.9739,3.8352,-4.1333,-0.0065185,0,0,0,11,235
2.0156,-3.9739,3.8352,-4.1333,-0.0065185,0,0,0,11,236
0.01555,-3.9739,-0.16481,-4.1333,-0.0065185,0,0,0,11,237
0.01555,-3.9739,-0.16481,-4.1333,-0.0065185,0,0,0,11,238
-3.9844,2.0261,-4.1648,1.8667,-0.0065185,0,0,1,11,239
2.0156,-3.9739,1.8352,-4.1333,-0.0065185,0,0,0,11,240
-3.9844,1.0261,-4.1648,1.8667,-0.0065185,0,0,1,11,241
-3.9844,0.026113,-4.1648,-0.1333,-0.0065185,0,0,1,11,242
0.01555,-3.9739,-0.16481,-4.1333,-0.0065185,0,0,0,11,243
-3.9844,-0.97389,-4.1648,-1.1333,-0.0065185,0,0,1,11,244
-0.98445,-3.9739,0.83519,-4.1333,-5.0065,1,0,0,11,245
-2.9844,-3.9739,-3.1648,-4.1333,-0.0065185,0,0,0,11,246
-2.9844,-3.9739,-3.1648,-4.1333,-0.0065185,0,0,1,11,247
-2.9844,0.026113,4.8352,-0.1333,-0.0065185,0,0,1,11,248
-2.9844,1.0261,4.8352,0.8667,-0.0065185,0,0,1,11,249
-2.9844,0.026113,4.8352,-0.1333,-0.0065185,0,0,0,11,250
-1.9844,-1.9739,-2.1648,-2.1333,-0.0065185,0,0,0,12,76
-1.9844,-2.9739,-0.16481,-3.1333,-0.0065185,0,0,1,12,77
-1.9844,0.026113,-0.16481,-0.1333,-0.0065185,0,0,1,12,78
0.01555,-1.9739,-0.16481,-2.1333,-0.0065185,0,0,1,12,79
0.01555,5.0261,-0.16481,4.8667,-0.0065185,0,0,1,12,80
0.01555,5.0261,-3.1648,4.8667,-0.0065185,0,0,1,12,81
5.0156,0.026113,-0.16481,-0.1333,-0.0065185,0,0,0,12,82
0.01555,4.0261,-3.1648,4.8667,-0.0065185,0,0,1,12,83
0.01555,3.0261,-0.16481,2.8667,-0.0065185,0,0,1,12,84
0.01555,1.0261,-3.1648,0.8667,-0.0065185,0,0,1,12,85
0.01555,4.0261,-3.1648,3.8667,-0.0065185,0,0,1,12,86
0.01555,-0.97389,-0.16481,3.8667,-0.0065185,0,0,0,12,87
0.01555,-0.97389,-3.1648,-1.1333,-5.0065,1,0,0,12,88
-0.98445,0.026113,-1.1648,4.8667,-0.0065185,0,0,0,12,89
0.01555,2.0261,4.8352,3.8667,-0.0065185,0,0,1,12,90
0.01555,3.0261,-0.16481,2.8667,-0.0065185,0,0,1,12,91
2.0156,0.026113,1.8352,4.8667,-0.0065185,0,0,0,12,92
0.01555,5.0261,-0.16481,4.8667,-0.0065185,0,0,1,12,93
0.01555,5.0261,4.8352,1.8667,4.9935,1,0,1,12,94
0.01555,3.0261,4.8352,2.8667,-0.0065185,0,0,1,12,95
4.0156,0.026113,4.8352,4.8667,-0.0065185,0,0,0,12,96
2.0156,0.026113,1.8352,4.8667,-0.0065185,0,0,0,12,97
0.01555,3.0261,-0.16481,2.8667,-0.0065185,0,0,1,12,98
0.01555,3.0261,4.8352,3.8667,4.9935,1,0,1,12,99
0.01555,-0.97389,4.8352,-1.1333,-0.0065185,0,0,0,12,100
1.0156,-0.97389,-0.16481,-1.1333,-0.0065185,0,0,0,12,101
-0.98445,2.0261,4.8352,0.8667,-0.0065185,0,0,1,12,102
-0.98445,4.0261,4.8352,3.8667,-0.0065185,0,0,1,12,103
5.0156,-0.97389,1.8352,-1.1333,-0.0065185,0,0,0,12,104
3.0156,-0.97389,2.8352,4.8667,-0.0065185,0,0,0,12,105
3.0156,-0.97389,4.8352,-1.1333,-5.0065,1,0,0,12,106
2.0156,-0.97389,4.8352,4.8667,-0.0065185,0,0,0,12,107
-0.98445,0.026113,4.8352,1.8667,-0.0065185,0,0,1,12,108
0.01555,-0.97389,-0.16481,4.8667,-0.0065185,0,0,1,12,109
1.0156,0.026113,0.83519,-0.1333,-0.0065185,0,0,0,12,110
0.01555,0.026113,-0.16481,-0.1333,-0.0065185,0,0,1,12,111
-3.9844,0.026113,-4.1648,-1.1333,-0.0065185,0,0,1,12,112
-3.9844,2.0261,-4.1648,1.8667,-0.0065185,0,0,1,12,113
-3.9844,2.0261,-0.16481,-0.1333,-0.0065185,0,0,1,12,114
-3.9844,2.0261,-0.16481,1.8667,4.9935,1,0,1,12,115
-3.9844,1.0261,-0.16481,0.8667,-0.0065185,0,0,1,12,116
-3.9844,4.0261,-0.16481,4.8667,-0.0065185,0,0,1,12,117
4.0156,-3.9739,1.8352,-4.1333,-0.0065185,0,0,0,12,118
-3.9844,4.0261,-4.1648,3.8667,4.9935,1,0,1,12,119
4.0156,-3.9739,4.8352,-4.1333,-0.0065185,0,0,0,12,120
1.0156,-3.9739,0.83519,-4.1333,-0.0065185,0,0,0,12,121
3.0156,-3.9739,2.8352,-4.1333,-0.0065185,0,0,0,12,122
-3.9844,2.0261,-0.16481,3.8667,-0.0065185,0,0,1,12,123
-3.9844,4.0261,-4.1648,3.8667,-0.0065185,0,0,1,12,124
4.0156,-3.9739,1.8352,-4.1333,2.9935,1,0,1,12,125
-2.9844,4.0261,-3.1648,-3.1333,-0.0065185,0,0,1,12,126
-2.9844,2.0261,-0.16481,1.8667,-0.0065185,0,0,1,12,127
-2.9844,-0.97389,-0.16481,-1.1333,-0.0065185,0,0,0,12,128
-0.98445,-1.9739,1.8352,-3.1333,-0.0065185,0,0,0,12,129
-1.9844,2.0261,-3.1648,-1.1333,-0.0065185,0,0,1,12,130
4.0156,-1.9739,1.8352,-3.1333,-0.0065185,0,0,0,12,131
-1.9844,4.0261,-3.1648,3.8667,-3.0065,1,0,0,12,132
-2.9844,4.0261,-2.1648,-3.1333,-0.0065185,0,0,1,12,133
-2.9844,4.0261,-2.1648,3.8667,-0.0065185,0,0,1,12,134
2.0156,-2.9739,3.8352,-3.1333,-0.0065185,0,0,0,12,135
-2.9844,-2.9739,-3.1648,1.8667,-0.0065185,0,0,0,12,136
1.0156,-2.9739,-2.1648,1.8667,-0.0065185,0,0,0,12,137
5.0156,-2.9739,4.8352,-3.1333,-0.0065185,0,0,0,12,138
-2.9844,5.0261,-3.1648,0.8667,2.9935,1,0,1,12,139
-2.9844,4.0261,-3.1648,3.8667,-0.0065185,0,0,1,12,140
-2.9844,4.0261,-3.1648,3.8667,-0.0065185,0,0,1,12,141
3.0156,-2.9739,2.8352,1.8667,-0.0065185,0,0,1,12,142
3.0156,3.0261,-3.1648,2.8667,-0.0065185,0,0,0,12,143
3.0156,3.0261,2.8352,2.8667,-0.0065185,0,0,0,12,144
3.0156,3.0261,2.8352,2.8667,-4.0065,1,0,1,12,145
5.0156,3.0261,-4.1648,2.8667,-0.0065185,0,0,0,12,146
3.0156,4.0261,2.8352,4.8667,-0.0065185,0,0,1,12,147
4.0156,3.0261,3.8352,2.8667,-0.0065185,0,0,0,12,148
3.0156,3.0261,2.8352,2.8667,-0.0065185,0,0,0,12,149
3.0156,3.0261,2.8352,3.8667,4.9935,1,0,1,12,150
3.0156,0.026113,2.8352,4.8667,-0.0065185,0,0,1,12,151
3.0156,0.026113,2.8352,-0.1333,-0.0065185,0,0,0,12,152
2.0156,0.026113,1.8352,-0.1333,-0.0065185,0,0,0,12,153
1.0156,0.026113,0.83519,-0.1333,-0.0065185,0,0,0,12,154
0.01555,1.0261,-0.16481,2.8667,-0.0065185,0,0,1,12,155
1.0156,0.026113,0.83519,-0.1333,-5.0065,1,0,0,12,156
0.01555,0.026113,-0.16481,-0.1333,-0.0065185,0,0,1,12,157
0.01555,-3.9739,-0.16481,-4.1333,-0.0065185,0,0,0,12,158
1.0156,-3.9739,4.8352,-0.1333,-0.0065185,0,0,0,12,159
-3.9844,-3.9739,-4.1648,-4.1333,-0.0065185,0,0,0,12,160
-3.9844,-3.9739,0.83519,-0.1333,-0.0065185,0,0,0,12,161
-0.98445,-3.9739,-4.1648,-0.1333,-0.0065185,0,0,0,12,162
-0.98445,-3.9739,-1.1648,-0.1333,-5.0065,1,0,0,12,163
-3.9844,-2.9739,-4.1648,4.8667,-0.0065185,0,0,0,12,164
-2.9844,1.0261,-3.1648,0.8667,-0.0065185,0,0,1,12,165
-2.9844,-2.9739,-3.1648,4.8667,-0.0065185,0,0,1,12,166
-2.9844,4.0261,-3.1648,3.8667,-0.0065185,0,0,1,12,167
4.0156,-2.9739,-3.1648,-0.1333,-5.0065,1,0,0,12,168
1.0156,-2.9739,0.83519,-0.1333,-0.0065185,0,0,0,12,169
2.0156,-2.9739,1.8352,-0.1333,-0.0065185,0,0,0,12,170
2.0156,-2.9739,1.8352,-3.1333,-0.0065185,0,0,0,12,171
2.0156,-2.9739,4.8352,-0.1333,-4.0065,1,0,0,12,172
2.0156,-2.9739,3.8352,-3.1333,-0.0065185,0,0,0,12,173
3.0156,-2.9739,2.8352,-3.1333,-0.0065185,0,0,0,12,174
-2.9844,3.0261,-3.1648,1.8667,1.9935,1,0,1,12,175
2.0156,-2.9739,1.8352,-0.1333,-0.0065185,0,0,0,12,176
-2.9844,1.0261,-3.1648,0.8667,-0.0065185,0,0,1,12,177
-2.9844,2.0261,-3.1648,1.8667,-0.0065185,0,0,1,12,178
2.0156,-2.9739,1.8352,-3.1333,-4.0065,1,0,0,12,179
-2.9844,1.0261,-3.1648,3.8667,-0.0065185,0,0,1,12,180
0.01555,-2.9739,0.83519,-3.1333,-0.0065185,0,0,1,12,181
0.01555,-0.97389,0.83519,-0.1333,-0.0065185,0,0,0,12,182
-0.98445,-0.97389,-0.16481,-0.1333,-0.0065185,0,0,1,12,183
4.0156,-0.97389,-1.1648,-0.1333,-0.0065185,0,0,0,12,184
-0.98445,4.0261,-0.16481,3.8667,3.9935,1,0,1,12,185
-0.98445,4.0261,-1.1648,3.8667,-0.0065185,0,0,1,12,186
5.0156,-0.97389,3.8352,-0.1333,-0.0065185,0,0,1,12,187
-0.98445,5.0261,2.8352,4.8667,-0.0065185,0,0,1,12,188
-0.98445,2.0261,-1.1648,3.8667,-0.0065185,0,0,1,12,189
-0.98445,2.0261,2.8352,1.8667,4.9935,1,0,1,12,190
-0.98445,1.0261,2.8352,0.8667,-0.0065185,0,0,1,12,191
1.0156,-0.97389,4.8352,2.8667,-3.0065,1,0,0,12,192
0.01555,-0.97389,-0.16481,2.8667,-0.0065185,0,0,1,12,193
-0.98445,0.026113,-1.1648,2.8667,-0.0065185,0,0,1,12,194
-0.98445,1.0261,-1.1648,0.8667,-0.0065185,0,0,1,12,195
-0.98445,2.0261,-1.1648,1.8667,-0.0065185,0,0,1,12,196
-0.98445,2.0261,-1.1648,1.8667,-0.0065185,0,0,1,12,197
-0.98445,2.0261,-1.1648,-0.1333,4.9935,1,0,1,12,198
-0.98445,0.026113,-1.1648,-0.1333,-0.0065185,0,0,0,12,199
-3.9844,0.026113,-4.1648,-0.1333,-0.0065185,0,0,1,12,200
3.0156,-3.9739,2.8352,-1.1333,-0.0065185,0,0,0,12,201
-3.9844,3.0261,-4.1648,4.8667,-4.0065,1,0,0,12,202
0.01555,3.0261,-1.1648,4.8667,-0.0065185,0,0,0,12,203
3.0156,2.0261,-4.1648,1.8667,-0.0065185,0,0,1,12,204
2.0156,3.0261,-0.16481,4.8667,-0.0065185,0,0,0,12,205
2.0156,3.0261,1.8352,4.8667,-4.0065,1,0,0,12,206
4.0156,3.0261,3.8352,-4.1333,-0.0065185,0,0,0,12,207
1.0156,3.0261,3.8352,4.8667,-0.0065185,0,0,0,12,208
4.0156,3.0261,0.83519,4.8667,-0.0065185,0,0,0,12,209
1.0156,3.0261,0.83519,-4.1333,-0.0065185,0,0,1,12,210
3.0156,1.0261,2.8352,3.8667,-0.0065185,0,0,0,12,211
5.0156,1.0261,4.8352,3.8667,-0.0065185,0,0,0,12,212
1.0156,3.0261,0.83519,2.8667,-0.0065185,0,0,1,12,213
1.0156,3.0261,3.8352,4.8667,-2.0065,1,0,0,12,214
2.0156,3.0261,0.83519,-2.1333,-0.0065185,0,0,0,12,215
3.0156,5.0261,-2.1648,1.8667,-0.0065185,0,0,1,12,216
3.0156,3.0261,-2.1648,2.8667,-0.0065185,0,0,1,12,217
3.0156,3.0261,4.8352,4.8667,-0.0065185,0,0,1,12,218
3.0156,3.0261,-2.1648,2.8667,-4.0065,1,0,0,12,219
3.0156,4.0261,4.8352,3.8667,-0.0065185,0,0,1,12,220
3.0156,4.0261,4.8352,3.8667,-0.0065185,0,0,1,12,221
3.0156,5.0261,4.8352,3.8667,-0.0065185,0,0,1,12,222
3.0156,5.0261,2.8352,4.8667,-4.0065,1,0,0,12,223
5.0156,4.0261,-4.1648,3.8667,-0.0065185,0,0,1,12,224
0.01555,5.0261,4.8352,-4.1333,-0.0065185,0,0,1,12,225
0.01555,2.0261,-0.16481,4.8667,-0.0065185,0,0,1,12,226
0.01555,3.0261,4.8352,1.8667,-0.0065185,0,0,1,12,227
0.01555,2.0261,4.8352,1.8667,-0.0065185,0,0,1,12,229
0.01555,2.0261,-0.16481,2.8667,-4.0065,1,0,0,12,230
3.0156,2.0261,2.8352,2.8667,-0.0065185,0,0,0,12,231
2.0156,2.0261,-4.1648,1.8667,-0.0065185,0,0,0,12,232
2.0156,-3.9739,4.8352,-4.1333,-0.0065185,0,0,0,12,233
3.0156,-3.9739,2.8352,-4.1333,-0.0065185,0,0,0,12,234
1.0156,-3.9739,1.8352,2.8667,-0.0065185,0,0,0,12,235
2.0156,-3.9739,0.83519,-4.1333,-0.0065185,0,0,0,12,236
-3.9844,3.0261,-4.1648,1.8667,-0.0065185,0,0,0,12,237
3.0156,3.0261,1.8352,2.8667,-0.0065185,0,0,1,12,238
3.0156,3.0261,1.8352,2.8667,-0.0065185,0,0,0,12,239
3.0156,1.0261,2.8352,0.8667,-0.0065185,0,0,1,12,240
0.01555,3.0261,2.8352,2.8667,-0.0065185,0,0,1,12,241
0.01555,2.0261,2.8352,2.8667,-0.0065185,0,0,1,12,242
0.01555,4.0261,2.8352,3.8667,-0.0065185,0,0,1,12,243
0.01555,1.0261,2.8352,0.8667,-0.0065185,0,0,0,12,244
1.0156,0.026113,0.83519,-0.1333,3.9935,1,0,1,12,245
1.0156,1.0261,0.83519,0.8667,-0.0065185,0,0,1,12,246
1.0156,1.0261,0.83519,0.8667,-0.0065185,0,0,1,12,247
-1.9844,1.0261,-2.1648,1.8667,-0.0065185,0,0,1,12,248
-0.98445,-1.9739,0.83519,-2.1333,-0.0065185,0,0,0,12,249
-0.98445,-1.9739,-1.1648,-2.1333,-0.0065185,0,0,1,12,250
1.0156,-1.9739,-0.16481,-2.1333,-0.0065185,0,0,0,13,76
2.0156,-1.9739,1.8352,-2.1333,-0.0065185,0,0,0,13,77
2.0156,-1.9739,0.83519,2.8667,-0.0065185,0,0,0,13,78
-0.98445,-1.9739,1.8352,2.8667,-0.0065185,0,0,1,13,79
-1.9844,-0.97389,-2.1648,-1.1333,2.9935,1,0,1,13,80
-1.9844,0.026113,-2.1648,-0.1333,-0.0065185,0,0,1,13,81
3.0156,-1.9739,2.8352,-3.1333,-0.0065185,0,0,0,13,82
4.0156,-1.9739,1.8352,-2.1333,-0.0065185,0,0,0,13,83
2.0156,-1.9739,1.8352,-2.1333,-0.0065185,0,0,0,13,84
5.0156,-1.9739,3.8352,-3.1333,-0.0065185,0,0,1,13,85
5.0156,4.0261,3.8352,3.8667,-0.0065185,0,0,0,13,86
4.0156,3.0261,-2.1648,2.8667,-0.0065185,0,0,0,13,87
3.0156,4.0261,2.8352,3.8667,-4.0065,1,0,1,13,88
0.01555,3.0261,-4.1648,2.8667,-0.0065185,0,0,0,13,89
-1.9844,3.0261,-2.1648,2.8667,-0.0065185,0,0,1,13,90
-1.9844,-1.9739,-2.1648,-0.1333,-0.0065185,0,0,0,13,91
-0.98445,-1.9739,-1.1648,-0.1333,-0.0065185,0,0,0,13,92
-1.9844,-0.97389,-2.1648,-1.1333,-0.0065185,0,0,0,13,93
-0.98445,-1.9739,-1.1648,-0.1333,4.9935,1,0,0,13,94
-2.9844,-1.9739,4.8352,4.8667,-0.0065185,0,0,1,13,95
-2.9844,-1.9739,4.8352,-2.1333,-0.0065185,0,0,0,13,96
-1.9844,-2.9739,-2.1648,-3.1333,-0.0065185,0,0,0,13,97
-2.9844,-1.9739,-3.1648,-0.1333,-0.0065185,0,0,1,13,98
-1.9844,-2.9739,-2.1648,-3.1333,3.9935,1,0,1,13,99
-1.9844,-1.9739,-2.1648,-2.1333,-0.0065185,0,0,0,13,100
-1.9844,-3.9739,-2.1648,-4.1333,-0.0065185,0,0,0,13,101
-1.9844,-3.9739,-3.1648,-4.1333,-3.0065,1,0,1,13,102
-0.98445,-1.9739,-4.1648,2.8667,-0.0065185,0,0,1,13,103
-0.98445,-2.9739,-4.1648,-3.1333,-0.0065185,0,0,1,13,104
-1.9844,-0.97389,-3.1648,-1.1333,-0.0065185,0,0,0,13,105
-1.9844,-0.97389,-2.1648,-1.1333,-5.0065,1,0,0,13,106
-0.98445,1.0261,-4.1648,0.8667,-0.0065185,0,0,1,13,107
-0.98445,-0.97389,4.8352,-1.1333,-0.0065185,0,0,0,13,108
3.0156,-0.97389,-1.1648,-1.1333,-0.0065185,0,0,0,13,109
1.0156,-0.97389,2.8352,-1.1333,-0.0065185,0,0,0,13,110
0.01555,-0.97389,-0.16481,-4.1333,-0.0065185,0,0,0,13,111
-2.9844,-0.97389,-3.1648,-1.1333,-0.0065185,0,0,1,13,112
3.0156,-2.9739,-4.1648,0.8667,-0.0065185,0,0,1,13,113
3.0156,3.0261,2.8352,2.8667,-0.0065185,0,0,1,13,114
3.0156,3.0261,-4.1648,2.8667,2.9935,1,0,0,13,115
2.0156,3.0261,1.8352,2.8667,-0.0065185,0,0,1,13,116
3.0156,2.0261,-3.1648,1.8667,-0.0065185,0,0,0,13,117
1.0156,2.0261,0.83519,1.8667,-0.0065185,0,0,0,13,118
2.0156,1.0261,1.8352,2.8667,-4.0065,1,0,1,13,119
3.0156,2.0261,-4.1648,1.8667,-0.0065185,0,0,1,13,120
3.0156,4.0261,-4.1648,3.8667,-0.0065185,0,0,1,13,121
3.0156,3.0261,2.8352,-3.1333,-0.0065185,0,0,1,13,122
5.0156,3.0261,2.8352,2.8667,-0.0065185,0,0,0,13,123
3.0156,5.0261,-4.1648,4.8667,-0.0065185,0,0,1,13,124
3.0156,5.0261,2.8352,4.8667,2.9935,1,0,1,13,125
3.0156,3.0261,-4.1648,2.8667,-0.0065185,0,0,1,13,126
3.0156,3.0261,-4.1648,2.8667,-0.0065185,0,0,1,13,127
1.0156,3.0261,2.8352,2.8667,-0.0065185,0,0,0,13,128
3.0156,1.0261,-4.1648,0.8667,-0.0065185,0,0,1,13,129
3.0156,2.0261,-4.1648,0.8667,-0.0065185,0,0,1,13,130
3.0156,2.0261,-4.1648,1.8667,-0.0065185,0,0,0,13,131
3.0156,2.0261,2.8352,1.8667,3.9935,1,0,1,13,132
3.0156,0.026113,2.8352,-0.1333,-0.0065185,0,0,1,13,133
-3.9844,3.0261,1.8352,2.8667,-0.0065185,0,0,1,13,134
-3.9844,-1.9739,1.8352,-2.1333,-0.0065185,0,0,0,13,135
-1.9844,-2.9739,-4.1648,-3.1333,-0.0065185,0,0,0,13,136
-2.9844,-2.9739,-2.1648,-4.1333,-0.0065185,0,0,1,13,137
-2.9844,-0.97389,-3.1648,-1.1333,-0.0065185,0,0,1,13,138
-2.9844,-0.97389,-3.1648,-3.1333,-3.0065,1,0,0,13,139
-3.9844,-0.97389,-4.1648,-3.1333,-0.0065185,0,0,1,13,140
-3.9844,4.0261,-4.1648,3.8667,-0.0065185,0,0,1,13,141
-3.9844,4.0261,-4.1648,3.8667,-0.0065185,0,0,1,13,142
-3.9844,2.0261,-4.1648,-3.1333,-0.0065185,0,0,1,13,143
-3.9844,2.0261,-4.1648,1.8667,-0.0065185,0,0,1,13,144
-3.9844,2.0261,-4.1648,1.8667,-4.0065,1,0,1,13,145
-3.9844,3.0261,-4.1648,-4.1333,-0.0065185,0,0,1,13,146
-3.9844,3.0261,-4.1648,2.8667,-0.0065185,0,0,1,13,147
-3.9844,2.0261,-4.1648,2.8667,-0.0065185,0,0,1,13,148
-3.9844,2.0261,-4.1648,1.8667,-0.0065185,0,0,1,13,149
-3.9844,2.0261,-2.1648,1.8667,-4.0065,1,0,1,13,150
-3.9844,-2.9739,-2.1648,-3.1333,-0.0065185,0,0,1,13,151
-3.9844,-0.97389,-4.1648,-4.1333,-0.0065185,0,0,0,13,152
-0.98445,2.0261,-4.1648,-2.1333,-0.0065185,0,0,1,13,153
-0.98445,-0.97389,-4.1648,-1.1333,-0.0065185,0,0,1,13,154
-0.98445,-2.9739,-4.1648,-3.1333,-0.0065185,0,0,1,13,155
-2.9844,-0.97389,1.8352,-4.1333,-5.0065,1,0,1,13,156
-2.9844,-1.9739,1.8352,-2.1333,-0.0065185,0,0,0,13,157
-0.98445,-1.9739,4.8352,-1.1333,-0.0065185,0,0,0,13,158
-2.9844,-1.9739,-1.1648,-2.1333,-0.0065185,0,0,0,13,159
-1.9844,-1.9739,-2.1648,-2.1333,-0.0065185,0,0,1,13,160
-1.9844,-1.9739,-2.1648,-3.1333,-0.0065185,0,0,0,13,161
-2.9844,-1.9739,-3.1648,-3.1333,-0.0065185,0,0,1,13,162
-1.9844,-2.9739,-2.1648,-1.1333,-5.0065,1,0,0,13,163
1.0156,-2.9739,0.83519,-3.1333,-0.0065185,0,0,1,13,164
1.0156,-1.9739,0.83519,-2.1333,-0.0065185,0,0,0,13,165
-2.9844,-1.9739,4.8352,-1.1333,-0.0065185,0,0,0,13,166
-3.9844,-1.9739,-3.1648,-2.1333,-0.0065185,0,0,1,13,167
-3.9844,-1.9739,-3.1648,-1.1333,2.9935,1,0,1,13,168
-3.9844,-2.9739,-3.1648,2.8667,-0.0065185,0,0,0,13,169
-0.98445,-2.9739,-1.1648,2.8667,-0.0065185,0,0,0,13,170
-0.98445,-2.9739,-1.1648,2.8667,-0.0065185,0,0,0,13,171
-0.98445,-2.9739,-4.1648,-3.1333,3.9935,1,0,1,13,172
-0.98445,0.026113,-4.1648,-0.1333,-0.0065185,0,0,0,13,173
-1.9844,0.026113,-2.1648,-0.1333,-0.0065185,0,0,0,13,174
0.01555,-2.9739,2.8352,-3.1333,-0.0065185,0,0,0,13,175
-2.9844,4.0261,-4.1648,3.8667,-0.0065185,0,0,1,13,176
-2.9844,4.0261,-3.1648,-0.1333,-0.0065185,0,0,0,13,177
-0.98445,4.0261,-1.1648,-0.1333,-0.0065185,0,0,0,13,178
-0.98445,4.0261,-4.1648,3.8667,-5.0065,1,0,1,13,179
-0.98445,3.0261,4.8352,-0.1333,-0.0065185,0,0,1,13,180
4.0156,-0.97389,2.8352,4.8667,-0.0065185,0,0,0,13,181
3.0156,-0.97389,2.8352,4.8667,-0.0065185,0,0,0,13,182
-0.98445,4.0261,-4.1648,3.8667,-0.0065185,0,0,1,13,183
-0.98445,4.0261,-4.1648,3.8667,-0.0065185,0,0,1,13,184
-0.98445,4.0261,-4.1648,3.8667,2.9935,1,0,0,13,185
4.0156,-1.9739,3.8352,4.8667,-0.0065185,0,0,0,13,186
-1.9844,0.026113,-2.1648,-0.1333,-0.0065185,0,0,1,13,187
0.01555,-1.9739,-0.16481,4.8667,-0.0065185,0,0,0,13,188
-1.9844,1.0261,-2.1648,0.8667,-0.0065185,0,0,1,13,189
-1.9844,1.0261,-2.1648,2.8667,4.9935,1,0,1,13,190
-1.9844,1.0261,-2.1648,0.8667,-0.0065185,0,0,1,13,191
-1.9844,0.026113,-2.1648,4.8667,-0.0065185,0,0,1,13,192
-1.9844,3.0261,-2.1648,-0.1333,-0.0065185,0,0,1,13,193
2.0156,-1.9739,2.8352,4.8667,-0.0065185,0,0,0,13,194
-1.9844,3.0261,-2.1648,2.8667,-0.0065185,0,0,1,13,195
-1.9844,4.0261,-2.1648,1.8667,-0.0065185,0,0,1,13,196
-1.9844,5.0261,-2.1648,4.8667,-0.0065185,0,0,1,13,197
-1.9844,5.0261,-2.1648,3.8667,2.9935,1,0,1,13,198
-1.9844,2.0261,-2.1648,1.8667,-0.0065185,0,0,1,13,199
2.0156,-1.9739,1.8352,4.8667,-0.0065185,0,0,0,13,200
-1.9844,0.026113,-2.1648,2.8667,-0.0065185,0,0,1,13,201
-1.9844,0.026113,-2.1648,-0.1333,-3.0065,1,0,1,13,202
4.0156,-1.9739,3.8352,4.8667,-0.0065185,0,0,0,13,203
3.0156,-1.9739,2.8352,4.8667,-0.0065185,0,0,0,13,204
-1.9844,3.0261,-2.1648,2.8667,-0.0065185,0,0,1,13,205
-1.9844,3.0261,-2.1648,-3.1333,-4.0065,1,0,1,13,206
-1.9844,4.0261,4.8352,3.8667,-0.0065185,0,0,1,13,207
-1.9844,0.026113,-2.1648,-4.1333,-0.0065185,0,0,1,13,208
-3.9844,-1.9739,-4.1648,4.8667,-0.0065185,0,0,0,13,209
-1.9844,-2.9739,4.8352,-0.1333,-0.0065185,0,0,0,13,210
-0.98445,-2.9739,-2.1648,-0.1333,-0.0065185,0,0,1,13,211
-1.9844,-0.97389,-3.1648,-1.1333,-0.0065185,0,0,1,13,212
-0.98445,-1.9739,-2.1648,-3.1333,-0.0065185,0,0,1,13,213
-0.98445,-1.9739,-1.1648,-2.1333,4.9935,1,0,1,13,214
-0.98445,0.026113,-2.1648,-0.1333,-0.0065185,0,0,1,13,215
-0.98445,-1.9739,-2.1648,4.8667,-0.0065185,0,0,1,13,216
-0.98445,0.026113,-2.1648,-2.1333,-0.0065185,0,0,1,13,217
-0.98445,0.026113,-2.1648,-0.1333,-0.0065185,0,0,1,13,218
-0.98445,0.026113,-2.1648,-0.1333,-3.0065,1,0,0,13,219
0.01555,2.0261,-0.16481,-1.1333,-0.0065185,0,0,0,13,220
2.0156,0.026113,1.8352,-0.1333,-0.0065185,0,0,1,13,221
2.0156,0.026113,1.8352,-3.1333,-4.0065,1,0,1,13,222
0.01555,2.0261,-4.1648,-1.1333,3.9935,1,0,0,13,223
2.0156,-0.97389,-1.1648,-4.1333,-0.0065185,0,0,0,13,224
-0.98445,2.0261,-1.1648,1.8667,-0.0065185,0,0,1,13,225
-1.9844,-0.97389,-2.1648,-4.1333,-0.0065185,0,0,0,13,226
-0.98445,-0.97389,1.8352,-4.1333,-0.0065185,0,0,0,13,227
-1.9844,-0.97389,-2.1648,-1.1333,-0.0065185,0,0,1,13,228
-1.9844,-3.9739,-2.1648,-4.1333,-0.0065185,0,0,0,13,229
-1.9844,-3.9739,-1.1648,-4.1333,-3.0065,1,0,1,13,230
-0.98445,-1.9739,-4.1648,-1.1333,-0.0065185,0,0,0,13,231
-1.9844,-1.9739,2.8352,-1.1333,-0.0065185,0,0,0,13,232
-2.9844,-1.9739,-3.1648,-2.1333,-0.0065185,0,0,0,13,233
-1.9844,-1.9739,-2.1648,-1.1333,-0.0065185,0,0,0,13,234
-1.9844,-1.9739,-2.1648,-1.1333,-0.0065185,0,0,1,13,235
-1.9844,-1.9739,-1.1648,-2.1333,-0.0065185,0,0,1,13,236
-1.9844,-1.9739,-2.1648,-1.1333,-0.0065185,0,0,0,13,237
-3.9844,-1.9739,-4.1648,-1.1333,-0.0065185,0,0,0,13,238
-1.9844,0.026113,-1.1648,-2.1333,-0.0065185,0,0,0,13,239
4.0156,0.026113,3.8352,-2.1333,-0.0065185,0,0,0,13,240
3.0156,0.026113,2.8352,-2.1333,-0.0065185,0,0,0,13,241
5.0156,0.026113,-2.1648,-0.1333,-0.0065185,0,0,1,13,242
5.0156,-3.9739,-2.1648,-2.1333,-0.0065185,0,0,0,13,243
-0.98445,-3.9739,4.8352,-2.1333,-0.0065185,0,0,0,13,244
-0.98445,-3.9739,-1.1648,-4.1333,3.9935,1,0,0,13,245
2.0156,-3.9739,-4.1648,-2.1333,-0.0065185,0,0,1,13,246
-3.9844,2.0261,-4.1648,-4.1333,-0.0065185,0,0,1,13,247
3.0156,-3.9739,2.8352,-4.1333,-0.0065185,0,0,0,13,248
2.0156,-3.9739,1.8352,-4.1333,-0.0065185,0,0,0,13,249
3.0156,-3.9739,2.8352,-4.1333,-0.0065185,0,0,0,13,250
-2.9844,0.026113,-1.1648,-1.1333,-0.0065185,0,0,0,14,76
0.01555,0.026113,-1.1648,-3.1333,-0.0065185,0,0,0,14,77
2.0156,0.026113,1.8352,-3.1333,-0.0065185,0,0,0,14,78
4.0156,0.026113,-0.16481,-0.1333,-0.0065185,0,0,0,14,79
0.01555,4.0261,-0.16481,3.8667,-0.0065185,0,0,1,14,80
4.0156,0.026113,3.8352,-3.1333,-0.0065185,0,0,0,14,81
0.01555,0.026113,3.8352,-0.1333,-0.0065185,0,0,1,14,82
0.01555,4.0261,3.8352,3.8667,-0.0065185,0,0,1,14,83
0.01555,3.0261,3.8352,2.8667,-0.0065185,0,0,1,14,84
3.0156,0.026113,2.8352,-0.1333,-0.0065185,0,0,0,14,85
0.01555,4.0261,3.8352,3.8667,-0.0065185,0,0,1,14,86
0.01555,4.0261,-0.16481,-3.1333,-1.0065,1,0,1,14,87
4.0156,0.026113,-1.1648,-0.1333,2.9935,1,0,0,14,88
0.01555,-1.9739,3.8352,-2.1333,-0.0065185,0,0,0,14,89
-2.9844,-1.9739,-0.16481,-3.1333,-0.0065185,0,0,1,14,90
-2.9844,0.026113,-3.1648,-0.1333,-0.0065185,0,0,1,14,91
4.0156,-2.9739,-2.1648,-0.1333,-0.0065185,0,0,0,14,92
-2.9844,4.0261,-3.1648,3.8667,-0.0065185,0,0,1,14,93
-2.9844,4.0261,-3.1648,3.8667,4.9935,1,0,1,14,94
-2.9844,4.0261,-3.1648,3.8667,-0.0065185,0,0,1,14,95
-2.9844,2.0261,-0.16481,1.8667,-0.0065185,0,0,1,14,96
-2.9844,-1.9739,-0.16481,-2.1333,-0.0065185,0,0,0,14,97
-1.9844,2.0261,4.8352,1.8667,-0.0065185,0,0,1,14,98
2.0156,-1.9739,-3.1648,4.8667,-5.0065,1,0,0,14,99
3.0156,-1.9739,4.8352,-2.1333,-0.0065185,0,0,0,14,100
-1.9844,-0.97389,4.8352,-1.1333,-0.0065185,0,0,0,14,101
-0.98445,-1.9739,2.8352,2.8667,-0.0065185,0,0,1,14,102
-0.98445,-1.9739,2.8352,-2.1333,-0.0065185,0,0,0,14,103
-1.9844,-1.9739,-2.1648,-1.1333,-0.0065185,0,0,1,14,104
-1.9844,-1.9739,-2.1648,-2.1333,-0.0065185,0,0,0,14,105
-1.9844,-1.9739,-2.1648,-2.1333,-2.0065,1,0,1,14,106
-0.98445,-1.9739,-2.1648,-2.1333,-0.0065185,0,0,1,14,107
1.0156,-0.97389,0.83519,-1.1333,-0.0065185,0,0,0,14,108
-0.98445,-0.97389,-2.1648,-1.1333,-0.0065185,0,0,0,14,109
-0.98445,-2.9739,-1.1648,-1.1333,-0.0065185,0,0,0,14,110
-2.9844,-2.9739,-3.1648,-1.1333,-0.0065185,0,0,0,14,111
-1.9844,-2.9739,-2.1648,-1.1333,-0.0065185,0,0,1,14,112
-1.9844,1.0261,-2.1648,-3.1333,-0.0065185,0,0,1,14,113
-1.9844,1.0261,-2.1648,0.8667,-0.0065185,0,0,1,14,114
1.0156,-1.9739,0.83519,-2.1333,-5.0065,1,0,0,14,115
-1.9844,-1.9739,-2.1648,-2.1333,-0.0065185,0,0,1,14,116
-0.98445,-1.9739,-1.1648,4.8667,-0.0065185,0,0,0,14,117
-1.9844,2.0261,-2.1648,1.8667,-0.0065185,0,0,1,14,118
2.0156,-1.9739,-2.1648,-2.1333,-4.0065,1,0,0,14,119
-1.9844,4.0261,-2.1648,3.8667,-0.0065185,0,0,1,14,120
5.0156,-1.9739,3.8352,4.8667,-0.0065185,0,0,0,14,123
-1.9844,-1.9739,4.8352,4.8667,-0.0065185,0,0,0,14,121
2.0156,-1.9739,-2.1648,4.8667,-0.0065185,0,0,1,14,124
2.0156,-1.9739,-2.1648,-2.1333,4.9935,1,0,0,14,126
-2.9844,-1.9739,1.8352,4.8667,-0.0065185,0,0,1,14,127
2.0156,-2.9739,-2.1648,1.8667,-0.0065185,0,0,1,14,122
2.0156,2.0261,1.8352,1.8667,-0.0065185,0,0,1,14,128
2.0156,2.0261,-2.1648,1.8667,-0.0065185,0,0,0,14,125
-0.98445,2.0261,-1.1648,1.8667,-0.0065185,0,0,0,14,129
2.0156,1.0261,-3.1648,0.8667,-0.0065185,0,0,1,14,130
2.0156,3.0261,-3.1648,2.8667,-0.0065185,0,0,1,14,131
2.0156,3.0261,1.8352,1.8667,2.9935,1,0,1,14,132
2.0156,5.0261,-3.1648,2.8667,-0.0065185,0,0,1,14,133
2.0156,4.0261,-3.1648,4.8667,-0.0065185,0,0,1,14,134
2.0156,2.0261,1.8352,1.8667,-0.0065185,0,0,1,14,135
2.0156,0.026113,1.8352,-0.1333,-0.0065185,0,0,0,14,136
0.01555,2.0261,3.8352,0.8667,-0.0065185,0,0,1,14,137
5.0156,0.026113,-3.1648,3.8667,-0.0065185,0,0,0,14,138
0.01555,5.0261,3.8352,4.8667,-3.0065,1,0,1,14,139
2.0156,0.026113,-3.1648,3.8667,-0.0065185,0,0,0,14,140
2.0156,0.026113,1.8352,3.8667,-0.0065185,0,0,0,14,141
4.0156,0.026113,1.8352,-0.1333,-0.0065185,0,0,0,14,142
0.01555,2.0261,3.8352,1.8667,-0.0065185,0,0,1,14,143
4.0156,0.026113,3.8352,3.8667,-0.0065185,0,0,0,14,144
0.01555,4.0261,3.8352,3.8667,-4.0065,1,0,1,14,145
0.01555,1.0261,3.8352,0.8667,-0.0065185,0,0,1,14,146
0.01555,0.026113,3.8352,-0.1333,-0.0065185,0,0,0,14,147
4.0156,0.026113,3.8352,-0.1333,-0.0065185,0,0,0,14,148
0.01555,2.0261,-4.1648,1.8667,-0.0065185,0,0,1,14,149
0.01555,2.0261,-4.1648,-0.1333,-4.0065,1,0,1,14,150
0.01555,3.0261,-4.1648,-4.1333,-0.0065185,0,0,1,14,151
0.01555,1.0261,-4.1648,0.8667,-0.0065185,0,0,1,14,152
3.0156,0.026113,2.8352,-0.1333,-0.0065185,0,0,0,14,153
1.0156,0.026113,0.83519,-0.1333,-0.0065185,0,0,0,14,154
0.01555,0.026113,-0.16481,2.8667,-0.0065185,0,0,0,14,155
0.01555,0.026113,-4.1648,-0.1333,1.9935,1,0,0,14,156
5.0156,0.026113,-2.1648,2.8667,-0.0065185,0,0,0,14,157
5.0156,0.026113,4.8352,2.8667,-0.0065185,0,0,0,14,158
3.0156,0.026113,4.8352,2.8667,-0.0065185,0,0,0,14,159
1.0156,0.026113,0.83519,2.8667,-0.0065185,0,0,0,14,160
4.0156,0.026113,2.8352,2.8667,-0.0065185,0,0,0,14,161
0.01555,4.0261,-0.16481,3.8667,-0.0065185,0,0,1,14,162
4.0156,0.026113,3.8352,2.8667,-5.0065,1,0,0,14,163
0.01555,5.0261,-0.16481,4.8667,-0.0065185,0,0,1,14,164
0.01555,2.0261,-0.16481,1.8667,-0.0065185,0,0,1,14,165
1.0156,0.026113,0.83519,2.8667,-0.0065185,0,0,0,14,166
-0.98445,0.026113,4.8352,-0.1333,-0.0065185,0,0,1,14,167
-0.98445,0.026113,4.8352,2.8667,-4.0065,1,0,1,14,168
-0.98445,1.0261,4.8352,-4.1333,-0.0065185,0,0,1,14,169
-0.98445,0.026113,4.8352,-0.1333,-0.0065185,0,0,1,14,170
-0.98445,1.0261,-1.1648,0.8667,-0.0065185,0,0,1,14,171
-0.98445,1.0261,4.8352,0.8667,-3.0065,1,0,1,14,172
4.0156,-0.97389,3.8352,-1.1333,-0.0065185,0,0,0,14,174
-0.98445,4.0261,4.8352,3.8667,-0.0065185,0,0,1,14,173
3.0156,-0.97389,2.8352,-1.1333,-0.0065185,0,0,0,14,175
-0.98445,1.0261,4.8352,0.8667,-0.0065185,0,0,0,14,177
1.0156,-3.9739,0.83519,-1.1333,-0.0065185,0,0,1,14,178
1.0156,-3.9739,0.83519,-2.1333,-0.0065185,0,0,0,14,176
-3.9844,0.026113,-4.1648,-0.1333,-0.0065185,0,0,0,14,179
-0.98445,0.026113,-1.1648,-3.1333,-0.0065185,0,0,1,14,180
-1.9844,-0.97389,-0.16481,-2.1333,-0.0065185,0,0,1,14,181
-1.9844,-1.9739,-1.1648,-2.1333,-0.0065185,0,0,0,14,182
-1.9844,-1.9739,-2.1648,-2.1333,-0.0065185,0,0,1,14,183
-3.9844,-1.9739,-0.16481,-2.1333,-0.0065185,0,0,1,14,184
-1.9844,-3.9739,-2.1648,-4.1333,3.9935,1,0,0,14,185
-3.9844,-2.9739,-0.16481,-4.1333,-0.0065185,0,0,0,14,186
-2.9844,-1.9739,-4.1648,-4.1333,-0.0065185,0,0,1,14,187
-2.9844,-2.9739,-3.1648,-2.1333,-0.0065185,0,0,0,14,188
-2.9844,-2.9739,-3.1648,-2.1333,-0.0065185,0,0,1,14,189
-2.9844,-2.9739,-3.1648,-3.1333,4.9935,1,0,1,14,190
0.01555,-2.9739,4.8352,-4.1333,-0.0065185,0,0,0,14,191
-2.9844,1.0261,-3.1648,0.8667,-0.0065185,0,0,1,14,192
-2.9844,1.0261,-3.1648,0.8667,-0.0065185,0,0,1,14,193
-1.9844,-2.9739,-2.1648,-4.1333,-0.0065185,0,0,1,14,194
2.0156,-1.9739,1.8352,-0.1333,-0.0065185,0,0,0,14,195
-1.9844,5.0261,-2.1648,4.8667,-0.0065185,0,0,1,14,196
